workerid,proliferate.condition,accuracy,category,cond,conj1,conj1_num,conj1_per,conj2,conj2_num,conj2_per,dataType,id,internal_node_id,response,rt,stimulus,text,time_elapsed,trial_index,trial_type,error
2058,Pilot,,irb,,,,,,,,,,0.0-0.0,0,13928,"<p><font size=""3"">We invite you to participate in a research study on language production and comprehension. Your experimenter will ask you to do a linguistic task such as reading sentences or words, naming pictures or describing scenes, making up sentences of your own, or participating in a simple language game. <br><br>There are no risks or benefits of any kind involved in this study. <br><br>You will be paid for your participation at the posted rate.<br><br>If you have read this form and have decided to participate in this experiment, please understand your participation is voluntary and you have the right to withdraw your consent or discontinue participation at anytime without penalty or loss of benefits to which you are otherwise entitled. You have the right to refuse to do particular tasks. Your individual privacy will be maintained in all published and written data resulting from the study. You may print this form for your records.<br><br>CONTACT INFORMATION: If you have any questions, concerns or complaints about this research study, its procedures, risks and benefits, you should contact the Protocol Director Meghan Sumner at (650)-725-9336. If you are not satisfied with how this study is being conducted, or if you have any concerns, complaints, or general questions about the research or your rights as a participant, please contact the Stanford Institutional Review Board (IRB) to speak to someone independent of the research team at (650)-723-2480 or toll free at 1-866-680-2906. You can also write to the Stanford IRB, Stanford University, 3000 El Camino Real, Five Palo Alto Square, 4th Floor, Palo Alto, CA 94306 USA.<br><br>If you agree to participate, please proceed to the study tasks.</font></p>",,13936,0,html-button-response,
2058,Pilot,,instructions,,,,,,,,,,0.0-1.0, ,9753,"In this experiment, you will read a series of sentences and will be asked to indicate the word which best completes each one.<br><br><strong>Please type the word 'is', 'are', or 'am' in the blank, then press ENTER when you're ready to move on to the next sentence.</strong> <br><br>If you're unsure about your choice, follow your first instinct.<br><br>When you're ready to begin, press the space bar.",,23690,1,html-keyboard-response,
2058,Pilot,,,Snull,Kevin,S,3,null,null,null,filler,112,0.0-2.0-0.0,['is'],,,"Kevin %is,are,am% hoping for a miracle.",26817,2,cloze,
2058,Pilot,,,SS,I,S,1,the scientist,S,3,critical,1,0.0-2.0-0.1,['are'],,,"Either I or the scientist %is,are,am% exploring the ocean depths.",36068,3,cloze,
2058,Pilot,,,Snull,Xavier,S,3,null,null,null,filler,101,0.0-2.0-0.2,['is'],,,"Xavier %is,are,am% solving the mystery case.",38819,4,cloze,
2058,Pilot,,,PS,the professors,P,3,the firefighter,S,3,critical,47,0.0-2.0-0.3,['are'],,,"Either the professors or the firefighter %is,are,am% crying in the club.",49165,5,cloze,
2058,Pilot,,,SS,Xena,S,3,Cora,S,3,filler,93,0.0-2.0-0.4,['are'],,,"Both Xena and Cora %is,are,am% brushing a cat.",52283,6,cloze,
2058,Pilot,,,Snull,I ,S,1,null,null,null,filler,60,0.0-2.0-0.5,['am'],,,"I  %is,are,am% eating my lunch.",53882,7,cloze,
2058,Pilot,,,SP,the author,S,3,the tattoo artists,P,3,critical,44,0.0-2.0-0.6,['is'],,,"Either the author or the tattoo artists %is,are,am% drinking copious amounts of lemonade.",60398,8,cloze,
2058,Pilot,,,Snull,I ,S,1,null,null,null,filler,70,0.0-2.0-0.7,['am'],,,"I  %is,are,am% working on my third novel.",62152,9,cloze,
2058,Pilot,,,Snull,Emily,S,3,null,null,null,filler,115,0.0-2.0-0.8,['is'],,,"Emily %is,are,am% working on a new iPad.",64016,10,cloze,
2058,Pilot,,,SS,the bus driver,S,3,I,S,1,critical,54,0.0-2.0-0.9,['are'],,,"Either the bus driver or I %is,are,am% welcoming the guests.",67847,11,cloze,
2058,Pilot,,,Snull,Thomas,S,3,null,null,null,filler,111,0.0-2.0-0.10,['is'],,,"Thomas %is,are,am% trying to cleanse the negative energy in the house.",70908,12,cloze,
2058,Pilot,,,SP,the skateboarder,S,3,we,P,1,critical,19,0.0-2.0-0.11,['are'],,,"Either the skateboarder or we %is,are,am% preheating the oven.",78671,13,cloze,
2058,Pilot,,,SS,I,S,1,the composer,S,3,critical,13,0.0-2.0-0.12,['is'],,,"Either I or the composer %is,are,am% hitchhiking to British Columbia.",86800,14,cloze,
2058,Pilot,,,PP,the informants,P,3,we,P,1,critical,34,0.0-2.0-0.13,['are'],,,"Either the informants or we %is,are,am% ordering more paella.",89913,15,cloze,
2058,Pilot,,,Snull,I ,S,1,null,null,null,filler,79,0.0-2.0-0.14,['am'],,,"I  %is,are,am% giving my partner a high-five.",91408,16,cloze,
2058,Pilot,,,PP,the cashiers,P,3,we,P,1,critical,22,0.0-2.0-0.15,['are'],,,"Either the cashiers or we %is,are,am% dancing the Hula.",93953,17,cloze,
2058,Pilot,,,SS,the innkeeper,S,3,I,S,1,critical,30,0.0-2.0-0.16,['are'],,,"Either the innkeeper or I %is,are,am% attending a lecture on Jane Austen.",97043,18,cloze,
2058,Pilot,,,Snull,I ,S,1,null,null,null,filler,61,0.0-2.0-0.17,['am'],,,"I  %is,are,am% feeding my firstborn.",98570,19,cloze,
2058,Pilot,,,Snull,I ,S,1,null,null,null,filler,69,0.0-2.0-0.18,['am'],,,"I  %is,are,am% working on my PhD.",100190,20,cloze,
2058,Pilot,,,PS,the dog trainers,P,3,the farmer,S,3,critical,35,0.0-2.0-0.19,['are'],,,"Either the dog trainers or the farmer %is,are,am% building homes for the unhoused.",103004,21,cloze,
2058,Pilot,,,PP,the taxidermists,P,3,the security specialists,P,3,filler,91,0.0-2.0-0.20,['are'],,,"Both the taxidermists and the security specialists %is,are,am% painting over the original Mona Lisa.",106782,22,cloze,
2058,Pilot,,,SS,Isabel,S,3,David,S,3,filler,89,0.0-2.0-0.21,['are'],,,"Both Isabel and David %is,are,am% drinking black coffee.",109157,23,cloze,
2058,Pilot,,,Snull,Lily,S,3,null,null,null,filler,118,0.0-2.0-0.22,['is'],,,"Lily %is,are,am% accusing the actor of being a nepo baby.",112877,24,cloze,
2058,Pilot,,,Snull,Uma,S,3,null,null,null,filler,107,0.0-2.0-0.23,['is'],,,"Uma %is,are,am% reading the magazine.",114495,25,cloze,
2058,Pilot,,,PS,the zombies,P,3,I,S,1,critical,9,0.0-2.0-0.24,['are'],,,"Either the zombies or I %is,are,am% writing a self-help book.",117544,26,cloze,
2058,Pilot,,,SP,the model,S,3,we,P,1,critical,55,0.0-2.0-0.25,['are'],,,"Either the model or we %is,are,am% hitting the jackpot.",120100,27,cloze,
2058,Pilot,,,SS,Patrick,S,3,Zara,S,3,filler,82,0.0-2.0-0.26,['are'],,,"Both Patrick and Zara %is,are,am% putting together a heist.",122658,28,cloze,
2058,Pilot,,,SP,I,S,1,we,P,1,critical,36,0.0-2.0-0.27,['am'],,,"Either I or we %is,are,am% teaching a class.",129635,29,cloze,
2058,Pilot,,,Snull,I ,S,1,null,null,null,filler,73,0.0-2.0-0.28,['am'],,,"I  %is,are,am% teaching my cat Spanish.",131728,30,cloze,
2058,Pilot,,,SS,Rebekah,S,3,Paige,S,3,filler,83,0.0-2.0-0.29,['are'],,,"Both Rebekah and Paige %is,are,am% designing tote bags for the funeral home.",133928,31,cloze,
2058,Pilot,,,Snull,I ,S,1,null,null,null,filler,74,0.0-2.0-0.30,['am'],,,"I  %is,are,am% celebrating my sibling's birthday.",135385,32,cloze,
2058,Pilot,,,PP,the shoppers,P,3,the interlopers,P,3,filler,88,0.0-2.0-0.31,['are'],,,"Both the shoppers and the interlopers %is,are,am% playing Scrabble",138321,33,cloze,
2058,Pilot,,,PS,the zoologists,P,3,I,S,1,critical,33,0.0-2.0-0.32,['am'],,,"Either the zoologists or I %is,are,am% writing a novel.",143747,34,cloze,
2058,Pilot,,,SP,the mechanic,S,3,the lifeguards,P,3,critical,32,0.0-2.0-0.33,['are'],,,"Either the mechanic or the lifeguards %is,are,am% building a house.",146138,35,cloze,
2058,Pilot,,,Snull,I ,S,1,null,null,null,filler,65,0.0-2.0-0.34,['am'],,,"I  %is,are,am% picking the onion out of my tomato soup.",147432,36,cloze,
2058,Pilot,,,PP,the bodyguards,P,3,the cashiers,P,3,filler,90,0.0-2.0-0.35,['are'],,,"Both the bodyguards and the cashiers %is,are,am% reading the dictionary cover to cover.",149908,37,cloze,
2058,Pilot,,,SP,I,S,1,the museum curators,P,3,critical,2,0.0-2.0-0.36,['are'],,,"Either I or the museum curators %is,are,am% going grocery shopping.",152812,38,cloze,
2058,Pilot,,,PS,we,P,1,the rancher,S,3,critical,16,0.0-2.0-0.37,['are'],,,"Either we or the rancher %is,are,am% making a difference.",155310,39,cloze,
2058,Pilot,,,SS,I,S,1,the therapist,S,3,critical,49,0.0-2.0-0.38,['are'],,,"Either I or the therapist %is,are,am% listening to Taylor's new album.",157761,40,cloze,
2058,Pilot,,,Snull,Faith,S,3,null,null,null,filler,105,0.0-2.0-0.39,['is'],,,"Faith %is,are,am% looking for a clean pair of shorts.",160229,41,cloze,
2058,Pilot,,,PS,the hitchhikers,P,3,the octopus,S,3,critical,23,0.0-2.0-0.40,['are'],,,"Either the hitchhikers or the octopus %is,are,am% dancing the macarena.",170145,42,cloze,
2058,Pilot,,,PP,the realtors,P,3,we,P,1,critical,58,0.0-2.0-0.41,['are'],,,"Either the realtors or we %is,are,am% running a marathon.",172827,43,cloze,
2058,Pilot,,,PP,the performers,P,3,the lifeguards,P,3,filler,85,0.0-2.0-0.42,['are'],,,"Both the performers and the lifeguards %is,are,am% helping remove lice from a child's hair.",174825,44,cloze,
2058,Pilot,,,SP,the banker,S,3,we,P,1,critical,31,0.0-2.0-0.43,['are'],,,"Either the banker or we %is,are,am% dancing in Saturday's recital.",177475,45,cloze,
2058,Pilot,,,PS,the wolves,P,3,I,S,1,critical,45,0.0-2.0-0.44,['are'],,,"Either the wolves or I %is,are,am% working on the puzzle.",184907,46,cloze,
2058,Pilot,,,Snull,I ,S,1,null,null,null,filler,72,0.0-2.0-0.45,['am'],,,"I  %is,are,am% conversing with my mother.",186203,47,cloze,
2058,Pilot,,,PP,the pedestrians,P,3,the customers,P,3,filler,81,0.0-2.0-0.46,['are'],,,"Both the pedestrians and the customers %is,are,am% blowing kisses to the Queen.",188639,48,cloze,
2058,Pilot,,,PP,the archaeologists,P,3,the pharmacists,P,3,filler,98,0.0-2.0-0.47,['are'],,,"Both the archaeologists and the pharmacists %is,are,am% helping a tiger escape the circus.",192020,49,cloze,
2058,Pilot,,,PP,the attendants,P,3,the actresses,P,3,filler,84,0.0-2.0-0.48,['are'],,,"Both the attendants and the actresses %is,are,am% purchasing new phones.",194223,50,cloze,
2058,Pilot,,,Snull,I ,S,1,null,null,null,filler,68,0.0-2.0-0.49,['am'],,,"I  %is,are,am% getting my ears pierced.",195487,51,cloze,
2058,Pilot,,,SP,I,S,1,the sunbathers,P,3,critical,50,0.0-2.0-0.50,['are'],,,"Either I or the sunbathers %is,are,am% grading the term papers.",197471,52,cloze,
2058,Pilot,,,PP,the professors,P,3,the manicurists,P,3,filler,87,0.0-2.0-0.51,['are'],,,"Both the professors and the manicurists %is,are,am% participating in a beauty pageant.",199811,53,cloze,
2058,Pilot,,,Snull,I ,S,1,null,null,null,filler,78,0.0-2.0-0.52,['am'],,,"I  %is,are,am% helping my friend win back their ex.",201467,54,cloze,
2058,Pilot,,,PS,the bartenders,P,3,the zookeeper,S,3,critical,59,0.0-2.0-0.53,['are'],,,"Either the bartenders or the zookeeper %is,are,am% asking for more coffee.",205421,55,cloze,
2058,Pilot,,,SS,the police officer,S,3,I,S,1,critical,6,0.0-2.0-0.54,['are'],,,"Either the police officer or I %is,are,am% playing the guitar.",209377,56,cloze,
2058,Pilot,,,PS,we,P,1,the dancer,S,3,critical,40,0.0-2.0-0.55,['are'],,,"Either we or the dancer %is,are,am% inspiring others.",212996,57,cloze,
2058,Pilot,,,PP,we,P,1,the programmers,P,3,critical,5,0.0-2.0-0.56,['are'],,,"Either we or the programmers %is,are,am% moving to Nairobi.",215902,58,cloze,
2058,Pilot,,,PP,we,P,1,the performers,P,3,critical,29,0.0-2.0-0.57,['are'],,,"Either we or the performers %is,are,am% ordering for the table.",217574,59,cloze,
2058,Pilot,,,SP,I,S,1,the sorcerers,P,3,critical,38,0.0-2.0-0.58,['are'],,,"Either I or the sorcerers %is,are,am% fixing the car.",219123,60,cloze,
2058,Pilot,,,Snull,Natalie,S,3,null,null,null,filler,103,0.0-2.0-0.59,['is'],,,"Natalie %is,are,am% texting the group chat about the tea.",220615,61,cloze,
2058,Pilot,,,PP,the technical writers,P,3,the zombies,P,3,filler,94,0.0-2.0-0.60,['are'],,,"Both the technical writers and the zombies %is,are,am% following a Bob Ross tutorial.",223485,62,cloze,
2058,Pilot,,,SS,the explorer,S,3,I,S,1,critical,18,0.0-2.0-0.61,['are'],,,"Either the explorer or I %is,are,am% celebrating the team's win.",226858,63,cloze,
2058,Pilot,,,PP,the graphic designers,P,3,the janitors,P,3,filler,96,0.0-2.0-0.62,['are'],,,"Both the graphic designers and the janitors %is,are,am% failing Spanish class.",229513,64,cloze,
2058,Pilot,,,SP,the writer,S,3,the detectives,P,3,critical,8,0.0-2.0-0.63,['are'],,,"Either the writer or the detectives %is,are,am% celebrating World Rivers Day.",231850,65,cloze,
2058,Pilot,,,SP,I,S,1,the shoemakers,P,3,critical,14,0.0-2.0-0.64,['are'],,,"Either I or the shoemakers %is,are,am% watching the movie.",233241,66,cloze,
2058,Pilot,,,SP,I,S,1,we,P,1,critical,12,0.0-2.0-0.65,['are'],,,"Either I or we %is,are,am% laying the house's foundation.",237498,67,cloze,
2058,Pilot,,,SS,Noah,S,3,Mason,S,3,filler,95,0.0-2.0-0.66,['are'],,,"Both Noah and Mason %is,are,am% traveling down Route 66.",239165,68,cloze,
2058,Pilot,,,Snull,I ,S,1,null,null,null,filler,63,0.0-2.0-0.67,['am'],,,"I  %is,are,am% weeding my garden.",240359,69,cloze,
2058,Pilot,,,Snull,Tiffany,S,3,null,null,null,filler,100,0.0-2.0-0.68,['is'],,,"Tiffany %is,are,am% folding napkins for the wedding.",241805,70,cloze,
2058,Pilot,,,PS,the novelists,P,3,I,S,1,critical,57,0.0-2.0-0.69,['are'],,,"Either the novelists or I %is,are,am% designing a website.",244206,71,cloze,
2058,Pilot,,,PS,we,P,1,the man,S,3,critical,28,0.0-2.0-0.70,['are'],,,"Either we or the man %is,are,am% starting a business.",251026,72,cloze,
2058,Pilot,,,PP,we,P,1,the graphic designers,P,3,critical,17,0.0-2.0-0.71,['are'],,,"Either we or the graphic designers %is,are,am% dominating in League of Legends.",252988,73,cloze,
2058,Pilot,,,SP,the door attendant,S,3,we,P,1,critical,43,0.0-2.0-0.72,['are'],,,"Either the door attendant or we %is,are,am% cleaning the inside of the oven.",255625,74,cloze,
2058,Pilot,,,PP,we,P,1,the cooks,P,3,critical,53,0.0-2.0-0.73,['are'],,,"Either we or the cooks %is,are,am% running the meeting.",257244,75,cloze,
2058,Pilot,,,Snull,Penelope,S,3,null,null,null,filler,117,0.0-2.0-0.74,['is'],,,"Penelope %is,are,am% catching the train uptown.",258568,76,cloze,
2058,Pilot,,,Snull,I ,S,1,null,null,null,filler,71,0.0-2.0-0.75,['am'],,,"I  %is,are,am% trying to find my Halloween candy.",259762,77,cloze,
2058,Pilot,,,Snull,Madison,S,3,null,null,null,filler,104,0.0-2.0-0.76,['is'],,,"Madison %is,are,am% interviewing people on the street.",260789,78,cloze,
2058,Pilot,,,SP,I,S,1,we,P,1,critical,48,0.0-2.0-0.77,['are'],,,"Either I or we %is,are,am% camping in the Redwood forest.",262326,79,cloze,
2058,Pilot,,,Snull,Georgia,S,3,null,null,null,filler,113,0.0-2.0-0.78,['is'],,,"Georgia %is,are,am% focusing on the task at hand.",264014,80,cloze,
2058,Pilot,,,SP,the emperor,S,3,the taxidermists,P,3,critical,56,0.0-2.0-0.79,['is'],,,"Either the emperor or the taxidermists %is,are,am% writing a review of the circus performance.",267697,81,cloze,
2058,Pilot,,,Snull,I ,S,1,null,null,null,filler,76,0.0-2.0-0.80,['am'],,,"I  %is,are,am% helping my sister-in-law with her art history paper.",269304,82,cloze,
2058,Pilot,,,SP,I,S,1,the villains,P,3,critical,26,0.0-2.0-0.81,['are'],,,"Either I or the villains %is,are,am% making a hearty stew.",272798,83,cloze,
2058,Pilot,,,PS,we,P,1,the sailor,S,3,critical,4,0.0-2.0-0.82,['are'],,,"Either we or the sailor %is,are,am% pleading with the Prime Minister.",275669,84,cloze,
2058,Pilot,,,SP,I,S,1,we,P,1,critical,0,0.0-2.0-0.83,['are'],,,"Either I or we %is,are,am% trying to remember the capital of Australia.",277408,85,cloze,
2058,Pilot,,,Snull,Katherine,S,3,null,null,null,filler,108,0.0-2.0-0.84,['is'],,,"Katherine %is,are,am% going to the Broadway show.",278856,86,cloze,
2058,Pilot,,,Snull,Holly,S,3,null,null,null,filler,110,0.0-2.0-0.85,['is'],,,"Holly %is,are,am% eating without utensils.",280558,87,cloze,
2058,Pilot,,,Snull,I ,S,1,null,null,null,filler,75,0.0-2.0-0.86,['am'],,,"I  %is,are,am% rearranging my bedroom furniture.",281811,88,cloze,
2058,Pilot,,,SS,Hannah,S,3,Yaryn,S,3,filler,92,0.0-2.0-0.87,['are'],,,"Both Hannah and Yaryn %is,are,am% planning a trip to Jupiter.",283766,89,cloze,
2058,Pilot,,,SP,I,S,1,we,P,1,critical,24,0.0-2.0-0.88,['are'],,,"Either I or we %is,are,am% reading the latest Stephen King novel.",285736,90,cloze,
2058,Pilot,,,PS,the archaeologists,P,3,I,S,1,critical,21,0.0-2.0-0.89,['are'],,,"Either the archaeologists or I %is,are,am% visiting the capital of Lithuania.",288149,91,cloze,
2058,Pilot,,,Snull,Alice,S,3,null,null,null,filler,106,0.0-2.0-0.90,['is'],,,"Alice %is,are,am% planning to move to Kansas.",290581,92,cloze,
2058,Pilot,,,PP,we,P,1,the children,P,3,critical,41,0.0-2.0-0.91,['are'],,,"Either we or the children %is,are,am% asking for assistance.",293093,93,cloze,
2058,Pilot,,,Snull,Oliver,S,3,null,null,null,filler,116,0.0-2.0-0.92,['is'],,,"Oliver %is,are,am% drinking a Diet Coke in the shower.",294383,94,cloze,
2058,Pilot,,,Snull,I ,S,1,null,null,null,filler,64,0.0-2.0-0.93,['am'],,,"I  %is,are,am% laughing at myself in the mirror.",295744,95,cloze,
2058,Pilot,,,PS,we,P,1,I,S,1,critical,15,0.0-2.0-0.94,['is'],,,"Either we or I %is,are,am% feeling guilty for lying.",298836,96,cloze,
2058,Pilot,,,PP,the butlers,P,3,we,P,1,critical,46,0.0-2.0-0.95,['are'],,,"Either the butlers or we %is,are,am% making a toy at Build-A-Bear.",301526,97,cloze,
2058,Pilot,,,PP,the astrologists,P,3,the dog trainers,P,3,filler,86,0.0-2.0-0.96,['are'],,,"Both the astrologists and the dog trainers %is,are,am% meditating at the airport.",303952,98,cloze,
2058,Pilot,,,PS,the astrologists,P,3,the skier,S,3,critical,11,0.0-2.0-0.97,['is'],,,"Either the astrologists or the skier %is,are,am% conducting an experiment.",310499,99,cloze,
2058,Pilot,,,Snull,I ,S,1,null,null,null,filler,62,0.0-2.0-0.98,['am'],,,"I  %is,are,am% reheating my day-old fries.",312094,100,cloze,
2058,Pilot,,,PP,the runners,P,3,we,P,1,critical,10,0.0-2.0-0.99,['are'],,,"Either the runners or we %is,are,am% sunbathing on the beach.",314382,101,cloze,
2058,Pilot,,,SS,the landlord,S,3,I,S,1,critical,42,0.0-2.0-0.100,['are'],,,"Either the landlord or I %is,are,am% calling for help.",315931,102,cloze,
2058,Pilot,,,PS,we,P,1,I,S,1,critical,39,0.0-2.0-0.101,['is'],,,"Either we or I %is,are,am% learning a new language.",322508,103,cloze,
2058,Pilot,,,PP,the orthodontists,P,3,the knitters,P,3,filler,97,0.0-2.0-0.102,['are'],,,"Both the orthodontists and the knitters %is,are,am% building a model train set.",324691,104,cloze,
2058,Pilot,,,PP,the acrobats,P,3,the screenwriters,P,3,filler,99,0.0-2.0-0.103,['are'],,,"Both the acrobats and the screenwriters %is,are,am% seeking external validation.",327279,105,cloze,
2058,Pilot,,,SP,the actor,S,3,we,P,1,critical,7,0.0-2.0-0.104,['are'],,,"Either the actor or we %is,are,am% investing in cryptocurrency.",329587,106,cloze,
2058,Pilot,,,Snull,Emma,S,3,null,null,null,filler,102,0.0-2.0-0.105,['is'],,,"Emma %is,are,am% opening the fridge.",330808,107,cloze,
2058,Pilot,,,PS,we,P,1,I,S,1,critical,3,0.0-2.0-0.106,['is'],,,"Either we or I %is,are,am% signing up for karaoke.",333638,108,cloze,
2058,Pilot,,,SS,I,S,1,the rock climber,S,3,critical,25,0.0-2.0-0.107,['is'],,,"Either I or the rock climber %is,are,am% traveling the world.",336623,109,cloze,
2058,Pilot,,,Snull,I ,S,1,null,null,null,filler,67,0.0-2.0-0.108,['am'],,,"I  %is,are,am% wishing on a shooting star.",338609,110,cloze,
2058,Pilot,,,PS,we,P,1,the painter,S,3,critical,52,0.0-2.0-0.109,['is'],,,"Either we or the painter %is,are,am% going to the moon.",341196,111,cloze,
2058,Pilot,,,Snull,I ,S,1,null,null,null,filler,66,0.0-2.0-0.110,['am'],,,"I  %is,are,am% cooking dinner for my dog.",342380,112,cloze,
2058,Pilot,,,Snull,Wendy,S,3,null,null,null,filler,114,0.0-2.0-0.111,['is'],,,"Wendy %is,are,am% trying to decipher the youths' slang.",343923,113,cloze,
2058,Pilot,,,SS,I,S,1,the musician,S,3,critical,37,0.0-2.0-0.112,['is'],,,"Either I or the musician %is,are,am% helping the team win.",347567,114,cloze,
2058,Pilot,,,SS,Olive,S,3,Simon,S,3,filler,80,0.0-2.0-0.113,['are'],,,"Both Olive and Simon %is,are,am% waving through a window.",351169,115,cloze,
2058,Pilot,,,Snull,Taylor,S,3,null,null,null,filler,119,0.0-2.0-0.114,['is'],,,"Taylor %is,are,am% shopping online for linen shirts.",352683,116,cloze,
2058,Pilot,,,Snull,Tristan,S,3,null,null,null,filler,109,0.0-2.0-0.115,['is'],,,"Tristan %is,are,am% arranging a bouquet.",354583,117,cloze,
2058,Pilot,,,Snull,I ,S,1,null,null,null,filler,77,0.0-2.0-0.116,['am'],,,"I  %is,are,am% getting my car detailed.",355814,118,cloze,
2058,Pilot,,,PS,we,P,1,I,S,1,critical,51,0.0-2.0-0.117,['are'],,,"Either we or I %is,are,am% helping others.",358284,119,cloze,
2058,Pilot,,,PS,we,P,1,I,S,1,critical,27,0.0-2.0-0.118,['are'],,,"Either we or I %is,are,am% administering the exam.",359998,120,cloze,
2058,Pilot,,,SP,the doctor,S,3,the fishers,P,3,critical,20,0.0-2.0-0.119,['are'],,,"Either the doctor or the fishers %is,are,am% running for public office.",362779,121,cloze,
2058,Pilot,[],demographics,,,,,,,,,,0.0-3.0,"{'age': '26', 'P0_Q0': None, 'enjoy': 'Better than the average experiment', 'gender': 'Female', 'correct': 'Yes', 'payment': 'The payment was fair', 'comments': '', 'language': 'Yes', 'education': 'Hold a higher degree', 'other-language': ''}",33544,,,396379,122,survey,
2058,Pilot,,thanks,,,,,,,,,,0.0-4.0,0,3934,Thank you for your time! Please click 'Continue' and then wait a moment until you're directed back to Prolific.<br><br>,,400315,123,html-button-response,
2060,Pilot,,irb,,,,,,,,,,0.0-0.0,0,14812,"<p><font size=""3"">We invite you to participate in a research study on language production and comprehension. Your experimenter will ask you to do a linguistic task such as reading sentences or words, naming pictures or describing scenes, making up sentences of your own, or participating in a simple language game. <br><br>There are no risks or benefits of any kind involved in this study. <br><br>You will be paid for your participation at the posted rate.<br><br>If you have read this form and have decided to participate in this experiment, please understand your participation is voluntary and you have the right to withdraw your consent or discontinue participation at anytime without penalty or loss of benefits to which you are otherwise entitled. You have the right to refuse to do particular tasks. Your individual privacy will be maintained in all published and written data resulting from the study. You may print this form for your records.<br><br>CONTACT INFORMATION: If you have any questions, concerns or complaints about this research study, its procedures, risks and benefits, you should contact the Protocol Director Meghan Sumner at (650)-725-9336. If you are not satisfied with how this study is being conducted, or if you have any concerns, complaints, or general questions about the research or your rights as a participant, please contact the Stanford Institutional Review Board (IRB) to speak to someone independent of the research team at (650)-723-2480 or toll free at 1-866-680-2906. You can also write to the Stanford IRB, Stanford University, 3000 El Camino Real, Five Palo Alto Square, 4th Floor, Palo Alto, CA 94306 USA.<br><br>If you agree to participate, please proceed to the study tasks.</font></p>",,14818,0,html-button-response,
2060,Pilot,,instructions,,,,,,,,,,0.0-1.0, ,17230,"In this experiment, you will read a series of sentences and will be asked to indicate the word which best completes each one.<br><br><strong>Please type the word 'is', 'are', or 'am' in the blank, then press ENTER when you're ready to move on to the next sentence.</strong> <br><br>If you're unsure about your choice, follow your first instinct.<br><br>When you're ready to begin, press the space bar.",,32049,1,html-keyboard-response,
2060,Pilot,,,PS,the archaeologists,P,3,I,S,1,critical,21,0.0-2.0-0.0,['am'],,,"Either the archaeologists or I %is,are,am% visiting the capital of Lithuania.",64784,2,cloze,
2060,Pilot,,,Snull,I ,S,1,null,null,null,filler,74,0.0-2.0-0.1,['am'],,,"I  %is,are,am% celebrating my sibling's birthday.",67074,3,cloze,
2060,Pilot,,,Snull,I ,S,1,null,null,null,filler,66,0.0-2.0-0.2,['am'],,,"I  %is,are,am% cooking dinner for my dog.",69809,4,cloze,
2060,Pilot,,,PS,we,P,1,the dancer,S,3,critical,40,0.0-2.0-0.3,['is'],,,"Either we or the dancer %is,are,am% inspiring others.",92270,5,cloze,
2060,Pilot,,,SP,I,S,1,the museum curators,P,3,critical,2,0.0-2.0-0.4,['are'],,,"Either I or the museum curators %is,are,am% going grocery shopping.",107521,6,cloze,
2060,Pilot,,,Snull,Madison,S,3,null,null,null,filler,104,0.0-2.0-0.5,['is'],,,"Madison %is,are,am% interviewing people on the street.",109609,7,cloze,
2060,Pilot,,,Snull,Uma,S,3,null,null,null,filler,107,0.0-2.0-0.6,['is'],,,"Uma %is,are,am% reading the magazine.",111264,8,cloze,
2060,Pilot,,,PS,we,P,1,I,S,1,critical,15,0.0-2.0-0.7,['am'],,,"Either we or I %is,are,am% feeling guilty for lying.",121281,9,cloze,
2060,Pilot,,,PS,the dog trainers,P,3,the farmer,S,3,critical,35,0.0-2.0-0.8,['is'],,,"Either the dog trainers or the farmer %is,are,am% building homes for the unhoused.",125961,10,cloze,
2060,Pilot,,,Snull,I ,S,1,null,null,null,filler,77,0.0-2.0-0.9,['am'],,,"I  %is,are,am% getting my car detailed.",127738,11,cloze,
2060,Pilot,,,SP,the emperor,S,3,the taxidermists,P,3,critical,56,0.0-2.0-0.10,['are'],,,"Either the emperor or the taxidermists %is,are,am% writing a review of the circus performance.",129872,12,cloze,
2060,Pilot,,,PS,the wolves,P,3,I,S,1,critical,45,0.0-2.0-0.11,['am'],,,"Either the wolves or I %is,are,am% working on the puzzle.",131929,13,cloze,
2060,Pilot,,,Snull,I ,S,1,null,null,null,filler,71,0.0-2.0-0.12,['am'],,,"I  %is,are,am% trying to find my Halloween candy.",134239,14,cloze,
2060,Pilot,,,SS,the landlord,S,3,I,S,1,critical,42,0.0-2.0-0.13,['am'],,,"Either the landlord or I %is,are,am% calling for help.",137312,15,cloze,
2060,Pilot,,,SS,Patrick,S,3,Zara,S,3,filler,82,0.0-2.0-0.14,['are'],,,"Both Patrick and Zara %is,are,am% putting together a heist.",139801,16,cloze,
2060,Pilot,,,SS,Noah,S,3,Mason,S,3,filler,95,0.0-2.0-0.15,['are'],,,"Both Noah and Mason %is,are,am% traveling down Route 66.",141641,17,cloze,
2060,Pilot,,,PS,we,P,1,I,S,1,critical,39,0.0-2.0-0.16,['am'],,,"Either we or I %is,are,am% learning a new language.",145610,18,cloze,
2060,Pilot,,,Snull,I ,S,1,null,null,null,filler,69,0.0-2.0-0.17,['am'],,,"I  %is,are,am% working on my PhD.",147081,19,cloze,
2060,Pilot,,,PP,the attendants,P,3,the actresses,P,3,filler,84,0.0-2.0-0.18,['are'],,,"Both the attendants and the actresses %is,are,am% purchasing new phones.",149632,20,cloze,
2060,Pilot,,,Snull,I ,S,1,null,null,null,filler,67,0.0-2.0-0.19,['am'],,,"I  %is,are,am% wishing on a shooting star.",151304,21,cloze,
2060,Pilot,,,Snull,Alice,S,3,null,null,null,filler,106,0.0-2.0-0.20,['is'],,,"Alice %is,are,am% planning to move to Kansas.",152730,22,cloze,
2060,Pilot,,,PP,the acrobats,P,3,the screenwriters,P,3,filler,99,0.0-2.0-0.21,['are'],,,"Both the acrobats and the screenwriters %is,are,am% seeking external validation.",156337,23,cloze,
2060,Pilot,,,SS,I,S,1,the musician,S,3,critical,37,0.0-2.0-0.22,['is'],,,"Either I or the musician %is,are,am% helping the team win.",162153,24,cloze,
2060,Pilot,,,SP,I,S,1,we,P,1,critical,24,0.0-2.0-0.23,['are'],,,"Either I or we %is,are,am% reading the latest Stephen King novel.",164712,25,cloze,
2060,Pilot,,,Snull,Thomas,S,3,null,null,null,filler,111,0.0-2.0-0.24,['is'],,,"Thomas %is,are,am% trying to cleanse the negative energy in the house.",166191,26,cloze,
2060,Pilot,,,SP,I,S,1,the shoemakers,P,3,critical,14,0.0-2.0-0.25,['are'],,,"Either I or the shoemakers %is,are,am% watching the movie.",167954,27,cloze,
2060,Pilot,,,Snull,I ,S,1,null,null,null,filler,65,0.0-2.0-0.26,['am'],,,"I  %is,are,am% picking the onion out of my tomato soup.",170087,28,cloze,
2060,Pilot,,,SS,Isabel,S,3,David,S,3,filler,89,0.0-2.0-0.27,['are'],,,"Both Isabel and David %is,are,am% drinking black coffee.",172162,29,cloze,
2060,Pilot,,,SP,the mechanic,S,3,the lifeguards,P,3,critical,32,0.0-2.0-0.28,['are'],,,"Either the mechanic or the lifeguards %is,are,am% building a house.",179658,30,cloze,
2060,Pilot,,,PP,we,P,1,the performers,P,3,critical,29,0.0-2.0-0.29,['are'],,,"Either we or the performers %is,are,am% ordering for the table.",183402,31,cloze,
2060,Pilot,,,PP,we,P,1,the children,P,3,critical,41,0.0-2.0-0.30,['are'],,,"Either we or the children %is,are,am% asking for assistance.",185720,32,cloze,
2060,Pilot,,,Snull,Holly,S,3,null,null,null,filler,110,0.0-2.0-0.31,['is'],,,"Holly %is,are,am% eating without utensils.",187669,33,cloze,
2060,Pilot,,,PS,the novelists,P,3,I,S,1,critical,57,0.0-2.0-0.32,['am'],,,"Either the novelists or I %is,are,am% designing a website.",191122,34,cloze,
2060,Pilot,,,SS,I,S,1,the scientist,S,3,critical,1,0.0-2.0-0.33,['is'],,,"Either I or the scientist %is,are,am% exploring the ocean depths.",195387,35,cloze,
2060,Pilot,,,PP,the informants,P,3,we,P,1,critical,34,0.0-2.0-0.34,['are'],,,"Either the informants or we %is,are,am% ordering more paella.",198146,36,cloze,
2060,Pilot,,,PP,the archaeologists,P,3,the pharmacists,P,3,filler,98,0.0-2.0-0.35,['are'],,,"Both the archaeologists and the pharmacists %is,are,am% helping a tiger escape the circus.",201913,37,cloze,
2060,Pilot,,,SP,the skateboarder,S,3,we,P,1,critical,19,0.0-2.0-0.36,['are'],,,"Either the skateboarder or we %is,are,am% preheating the oven.",204985,38,cloze,
2060,Pilot,,,Snull,I ,S,1,null,null,null,filler,72,0.0-2.0-0.37,['am'],,,"I  %is,are,am% conversing with my mother.",206993,39,cloze,
2060,Pilot,,,SS,Hannah,S,3,Yaryn,S,3,filler,92,0.0-2.0-0.38,['are'],,,"Both Hannah and Yaryn %is,are,am% planning a trip to Jupiter.",209065,40,cloze,
2060,Pilot,,,SP,the doctor,S,3,the fishers,P,3,critical,20,0.0-2.0-0.39,['are'],,,"Either the doctor or the fishers %is,are,am% running for public office.",214172,41,cloze,
2060,Pilot,,,PS,the bartenders,P,3,the zookeeper,S,3,critical,59,0.0-2.0-0.40,['is'],,,"Either the bartenders or the zookeeper %is,are,am% asking for more coffee.",216682,42,cloze,
2060,Pilot,,,Snull,Georgia,S,3,null,null,null,filler,113,0.0-2.0-0.41,['is'],,,"Georgia %is,are,am% focusing on the task at hand.",218025,43,cloze,
2060,Pilot,,,Snull,Katherine,S,3,null,null,null,filler,108,0.0-2.0-0.42,['is'],,,"Katherine %is,are,am% going to the Broadway show.",219560,44,cloze,
2060,Pilot,,,SS,I,S,1,the rock climber,S,3,critical,25,0.0-2.0-0.43,['are'],,,"Either I or the rock climber %is,are,am% traveling the world.",224628,45,cloze,
2060,Pilot,,,Snull,Oliver,S,3,null,null,null,filler,116,0.0-2.0-0.44,['is'],,,"Oliver %is,are,am% drinking a Diet Coke in the shower.",226684,46,cloze,
2060,Pilot,,,SP,the author,S,3,the tattoo artists,P,3,critical,44,0.0-2.0-0.45,['are'],,,"Either the author or the tattoo artists %is,are,am% drinking copious amounts of lemonade.",229786,47,cloze,
2060,Pilot,,,SP,I,S,1,we,P,1,critical,48,0.0-2.0-0.46,['are'],,,"Either I or we %is,are,am% camping in the Redwood forest.",237240,48,cloze,
2060,Pilot,,,SS,the bus driver,S,3,I,S,1,critical,54,0.0-2.0-0.47,['am'],,,"Either the bus driver or I %is,are,am% welcoming the guests.",239296,49,cloze,
2060,Pilot,,,Snull,Lily,S,3,null,null,null,filler,118,0.0-2.0-0.48,['is'],,,"Lily %is,are,am% accusing the actor of being a nepo baby.",241769,50,cloze,
2060,Pilot,,,SP,I,S,1,we,P,1,critical,0,0.0-2.0-0.49,['are'],,,"Either I or we %is,are,am% trying to remember the capital of Australia.",243546,51,cloze,
2060,Pilot,,,Snull,I ,S,1,null,null,null,filler,75,0.0-2.0-0.50,['am'],,,"I  %is,are,am% rearranging my bedroom furniture.",244873,52,cloze,
2060,Pilot,,,Snull,Taylor,S,3,null,null,null,filler,119,0.0-2.0-0.51,['is'],,,"Taylor %is,are,am% shopping online for linen shirts.",246000,53,cloze,
2060,Pilot,,,Snull,I ,S,1,null,null,null,filler,68,0.0-2.0-0.52,['am'],,,"I  %is,are,am% getting my ears pierced.",247175,54,cloze,
2060,Pilot,,,PP,we,P,1,the graphic designers,P,3,critical,17,0.0-2.0-0.53,['are'],,,"Either we or the graphic designers %is,are,am% dominating in League of Legends.",249608,55,cloze,
2060,Pilot,,,Snull,I ,S,1,null,null,null,filler,63,0.0-2.0-0.54,['am'],,,"I  %is,are,am% weeding my garden.",250984,56,cloze,
2060,Pilot,,,Snull,Tiffany,S,3,null,null,null,filler,100,0.0-2.0-0.55,['is'],,,"Tiffany %is,are,am% folding napkins for the wedding.",252226,57,cloze,
2060,Pilot,,,PS,we,P,1,the man,S,3,critical,28,0.0-2.0-0.56,['is'],,,"Either we or the man %is,are,am% starting a business.",259741,58,cloze,
2060,Pilot,,,PS,the professors,P,3,the firefighter,S,3,critical,47,0.0-2.0-0.57,['is'],,,"Either the professors or the firefighter %is,are,am% crying in the club.",262729,59,cloze,
2060,Pilot,,,Snull,Tristan,S,3,null,null,null,filler,109,0.0-2.0-0.58,['is'],,,"Tristan %is,are,am% arranging a bouquet.",264115,60,cloze,
2060,Pilot,,,SP,the banker,S,3,we,P,1,critical,31,0.0-2.0-0.59,['are'],,,"Either the banker or we %is,are,am% dancing in Saturday's recital.",266819,61,cloze,
2060,Pilot,,,Snull,I ,S,1,null,null,null,filler,70,0.0-2.0-0.60,['am'],,,"I  %is,are,am% working on my third novel.",268115,62,cloze,
2060,Pilot,,,Snull,I ,S,1,null,null,null,filler,79,0.0-2.0-0.61,['am'],,,"I  %is,are,am% giving my partner a high-five.",269807,63,cloze,
2060,Pilot,,,Snull,I ,S,1,null,null,null,filler,64,0.0-2.0-0.62,['am'],,,"I  %is,are,am% laughing at myself in the mirror.",271281,64,cloze,
2060,Pilot,,,PP,the taxidermists,P,3,the security specialists,P,3,filler,91,0.0-2.0-0.63,['are'],,,"Both the taxidermists and the security specialists %is,are,am% painting over the original Mona Lisa.",274465,65,cloze,
2060,Pilot,,,PS,we,P,1,the rancher,S,3,critical,16,0.0-2.0-0.64,['are'],,,"Either we or the rancher %is,are,am% making a difference.",277201,66,cloze,
2060,Pilot,,,SS,the police officer,S,3,I,S,1,critical,6,0.0-2.0-0.65,['am'],,,"Either the police officer or I %is,are,am% playing the guitar.",280041,67,cloze,
2060,Pilot,,,SP,the door attendant,S,3,we,P,1,critical,43,0.0-2.0-0.66,['are'],,,"Either the door attendant or we %is,are,am% cleaning the inside of the oven.",282009,68,cloze,
2060,Pilot,,,PS,the zoologists,P,3,I,S,1,critical,33,0.0-2.0-0.67,['am'],,,"Either the zoologists or I %is,are,am% writing a novel.",283649,69,cloze,
2060,Pilot,,,PP,the shoppers,P,3,the interlopers,P,3,filler,88,0.0-2.0-0.68,['are'],,,"Both the shoppers and the interlopers %is,are,am% playing Scrabble",286401,70,cloze,
2060,Pilot,,,SS,the innkeeper,S,3,I,S,1,critical,30,0.0-2.0-0.69,['am'],,,"Either the innkeeper or I %is,are,am% attending a lecture on Jane Austen.",288368,71,cloze,
2060,Pilot,,,PS,the astrologists,P,3,the skier,S,3,critical,11,0.0-2.0-0.70,['is'],,,"Either the astrologists or the skier %is,are,am% conducting an experiment.",291867,72,cloze,
2060,Pilot,,,Snull,Natalie,S,3,null,null,null,filler,103,0.0-2.0-0.71,['is'],,,"Natalie %is,are,am% texting the group chat about the tea.",293456,73,cloze,
2060,Pilot,,,PS,we,P,1,the sailor,S,3,critical,4,0.0-2.0-0.72,['is'],,,"Either we or the sailor %is,are,am% pleading with the Prime Minister.",305273,74,cloze,
2060,Pilot,,,SP,I,S,1,we,P,1,critical,36,0.0-2.0-0.73,['are'],,,"Either I or we %is,are,am% teaching a class.",309624,75,cloze,
2060,Pilot,,,Snull,Xavier,S,3,null,null,null,filler,101,0.0-2.0-0.74,['is'],,,"Xavier %is,are,am% solving the mystery case.",310721,76,cloze,
2060,Pilot,,,Snull,Emily,S,3,null,null,null,filler,115,0.0-2.0-0.75,['is'],,,"Emily %is,are,am% working on a new iPad.",313928,77,cloze,
2060,Pilot,,,SP,the model,S,3,we,P,1,critical,55,0.0-2.0-0.76,['are'],,,"Either the model or we %is,are,am% hitting the jackpot.",317089,78,cloze,
2060,Pilot,,,Snull,Penelope,S,3,null,null,null,filler,117,0.0-2.0-0.77,['is'],,,"Penelope %is,are,am% catching the train uptown.",318609,79,cloze,
2060,Pilot,,,SP,I,S,1,the sunbathers,P,3,critical,50,0.0-2.0-0.78,['are'],,,"Either I or the sunbathers %is,are,am% grading the term papers.",322049,80,cloze,
2060,Pilot,,,SS,Xena,S,3,Cora,S,3,filler,93,0.0-2.0-0.79,['are'],,,"Both Xena and Cora %is,are,am% brushing a cat.",324151,81,cloze,
2060,Pilot,,,Snull,I ,S,1,null,null,null,filler,60,0.0-2.0-0.80,['am'],,,"I  %is,are,am% eating my lunch.",325449,82,cloze,
2060,Pilot,,,Snull,Faith,S,3,null,null,null,filler,105,0.0-2.0-0.81,['is'],,,"Faith %is,are,am% looking for a clean pair of shorts.",326681,83,cloze,
2060,Pilot,,,PP,the orthodontists,P,3,the knitters,P,3,filler,97,0.0-2.0-0.82,['are'],,,"Both the orthodontists and the knitters %is,are,am% building a model train set.",329217,84,cloze,
2060,Pilot,,,PP,the runners,P,3,we,P,1,critical,10,0.0-2.0-0.83,['are'],,,"Either the runners or we %is,are,am% sunbathing on the beach.",332025,85,cloze,
2060,Pilot,,,PP,the pedestrians,P,3,the customers,P,3,filler,81,0.0-2.0-0.84,['are'],,,"Both the pedestrians and the customers %is,are,am% blowing kisses to the Queen.",334051,86,cloze,
2060,Pilot,,,PS,the zombies,P,3,I,S,1,critical,9,0.0-2.0-0.85,['am'],,,"Either the zombies or I %is,are,am% writing a self-help book.",335882,87,cloze,
2060,Pilot,,,SP,the writer,S,3,the detectives,P,3,critical,8,0.0-2.0-0.86,['are'],,,"Either the writer or the detectives %is,are,am% celebrating World Rivers Day.",339234,88,cloze,
2060,Pilot,,,PS,we,P,1,I,S,1,critical,3,0.0-2.0-0.87,['am'],,,"Either we or I %is,are,am% signing up for karaoke.",340921,89,cloze,
2060,Pilot,,,PP,the bodyguards,P,3,the cashiers,P,3,filler,90,0.0-2.0-0.88,['are'],,,"Both the bodyguards and the cashiers %is,are,am% reading the dictionary cover to cover.",342931,90,cloze,
2060,Pilot,,,PS,we,P,1,the painter,S,3,critical,52,0.0-2.0-0.89,['is'],,,"Either we or the painter %is,are,am% going to the moon.",346474,91,cloze,
2060,Pilot,,,PP,the professors,P,3,the manicurists,P,3,filler,87,0.0-2.0-0.90,['are'],,,"Both the professors and the manicurists %is,are,am% participating in a beauty pageant.",348482,92,cloze,
2060,Pilot,,,PS,we,P,1,I,S,1,critical,51,0.0-2.0-0.91,['am'],,,"Either we or I %is,are,am% helping others.",350452,93,cloze,
2060,Pilot,,,PP,the astrologists,P,3,the dog trainers,P,3,filler,86,0.0-2.0-0.92,['are'],,,"Both the astrologists and the dog trainers %is,are,am% meditating at the airport.",354289,94,cloze,
2060,Pilot,,,PP,the technical writers,P,3,the zombies,P,3,filler,94,0.0-2.0-0.93,['are'],,,"Both the technical writers and the zombies %is,are,am% following a Bob Ross tutorial.",359904,95,cloze,
2060,Pilot,,,SS,Rebekah,S,3,Paige,S,3,filler,83,0.0-2.0-0.94,['are'],,,"Both Rebekah and Paige %is,are,am% designing tote bags for the funeral home.",363793,96,cloze,
2060,Pilot,,,PP,we,P,1,the programmers,P,3,critical,5,0.0-2.0-0.95,['are'],,,"Either we or the programmers %is,are,am% moving to Nairobi.",366851,97,cloze,
2060,Pilot,,,SP,I,S,1,the sorcerers,P,3,critical,38,0.0-2.0-0.96,['are'],,,"Either I or the sorcerers %is,are,am% fixing the car.",373573,98,cloze,
2060,Pilot,,,SS,I,S,1,the composer,S,3,critical,13,0.0-2.0-0.97,['is'],,,"Either I or the composer %is,are,am% hitchhiking to British Columbia.",378226,99,cloze,
2060,Pilot,,,Snull,I ,S,1,null,null,null,filler,62,0.0-2.0-0.98,['am'],,,"I  %is,are,am% reheating my day-old fries.",382465,100,cloze,
2060,Pilot,,,Snull,Emma,S,3,null,null,null,filler,102,0.0-2.0-0.99,['is'],,,"Emma %is,are,am% opening the fridge.",383656,101,cloze,
2060,Pilot,,,PP,the performers,P,3,the lifeguards,P,3,filler,85,0.0-2.0-0.100,['are'],,,"Both the performers and the lifeguards %is,are,am% helping remove lice from a child's hair.",385568,102,cloze,
2060,Pilot,,,PP,we,P,1,the cooks,P,3,critical,53,0.0-2.0-0.101,['are'],,,"Either we or the cooks %is,are,am% running the meeting.",388233,103,cloze,
2060,Pilot,,,PP,the realtors,P,3,we,P,1,critical,58,0.0-2.0-0.102,['are'],,,"Either the realtors or we %is,are,am% running a marathon.",390393,104,cloze,
2060,Pilot,,,PS,we,P,1,I,S,1,critical,27,0.0-2.0-0.103,['am'],,,"Either we or I %is,are,am% administering the exam.",392977,105,cloze,
2060,Pilot,,,Snull,I ,S,1,null,null,null,filler,73,0.0-2.0-0.104,['am'],,,"I  %is,are,am% teaching my cat Spanish.",394266,106,cloze,
2060,Pilot,,,SS,I,S,1,the therapist,S,3,critical,49,0.0-2.0-0.105,['is'],,,"Either I or the therapist %is,are,am% listening to Taylor's new album.",397491,107,cloze,
2060,Pilot,,,Snull,Kevin,S,3,null,null,null,filler,112,0.0-2.0-0.106,['is'],,,"Kevin %is,are,am% hoping for a miracle.",399410,108,cloze,
2060,Pilot,,,PP,the graphic designers,P,3,the janitors,P,3,filler,96,0.0-2.0-0.107,['are'],,,"Both the graphic designers and the janitors %is,are,am% failing Spanish class.",401480,109,cloze,
2060,Pilot,,,PP,the cashiers,P,3,we,P,1,critical,22,0.0-2.0-0.108,['are'],,,"Either the cashiers or we %is,are,am% dancing the Hula.",403313,110,cloze,
2060,Pilot,,,SP,the actor,S,3,we,P,1,critical,7,0.0-2.0-0.109,['are'],,,"Either the actor or we %is,are,am% investing in cryptocurrency.",405905,111,cloze,
2060,Pilot,,,Snull,Wendy,S,3,null,null,null,filler,114,0.0-2.0-0.110,['is'],,,"Wendy %is,are,am% trying to decipher the youths' slang.",407400,112,cloze,
2060,Pilot,,,SS,Olive,S,3,Simon,S,3,filler,80,0.0-2.0-0.111,['are'],,,"Both Olive and Simon %is,are,am% waving through a window.",409688,113,cloze,
2060,Pilot,,,SP,I,S,1,we,P,1,critical,12,0.0-2.0-0.112,['are'],,,"Either I or we %is,are,am% laying the house's foundation.",412073,114,cloze,
2060,Pilot,,,SS,the explorer,S,3,I,S,1,critical,18,0.0-2.0-0.113,['am'],,,"Either the explorer or I %is,are,am% celebrating the team's win.",414657,115,cloze,
2060,Pilot,,,Snull,I ,S,1,null,null,null,filler,78,0.0-2.0-0.114,['am'],,,"I  %is,are,am% helping my friend win back their ex.",416418,116,cloze,
2060,Pilot,,,Snull,I ,S,1,null,null,null,filler,76,0.0-2.0-0.115,['am'],,,"I  %is,are,am% helping my sister-in-law with her art history paper.",418281,117,cloze,
2060,Pilot,,,SP,I,S,1,the villains,P,3,critical,26,0.0-2.0-0.116,['are'],,,"Either I or the villains %is,are,am% making a hearty stew.",420817,118,cloze,
2060,Pilot,,,PS,the hitchhikers,P,3,the octopus,S,3,critical,23,0.0-2.0-0.117,['is'],,,"Either the hitchhikers or the octopus %is,are,am% dancing the macarena.",423682,119,cloze,
2060,Pilot,,,Snull,I ,S,1,null,null,null,filler,61,0.0-2.0-0.118,['am'],,,"I  %is,are,am% feeding my firstborn.",424849,120,cloze,
2060,Pilot,,,PP,the butlers,P,3,we,P,1,critical,46,0.0-2.0-0.119,['are'],,,"Either the butlers or we %is,are,am% making a toy at Build-A-Bear.",427313,121,cloze,
2060,Pilot,[],demographics,,,,,,,,,,0.0-3.0,"{'age': '41', 'P0_Q0': None, 'enjoy': 'An average experiment', 'gender': 'Female', 'correct': 'Yes', 'payment': 'The payment was fair', 'comments': '', 'language': 'Yes', 'education': 'Hold a higher degree', 'other-language': ''}",35702,,,463044,122,survey,
2060,Pilot,,thanks,,,,,,,,,,0.0-4.0,0,2011,Thank you for your time! Please click 'Continue' and then wait a moment until you're directed back to Prolific.<br><br>,,465057,123,html-button-response,
2057,Pilot,,irb,,,,,,,,,,0.0-0.0,0,43551,"<p><font size=""3"">We invite you to participate in a research study on language production and comprehension. Your experimenter will ask you to do a linguistic task such as reading sentences or words, naming pictures or describing scenes, making up sentences of your own, or participating in a simple language game. <br><br>There are no risks or benefits of any kind involved in this study. <br><br>You will be paid for your participation at the posted rate.<br><br>If you have read this form and have decided to participate in this experiment, please understand your participation is voluntary and you have the right to withdraw your consent or discontinue participation at anytime without penalty or loss of benefits to which you are otherwise entitled. You have the right to refuse to do particular tasks. Your individual privacy will be maintained in all published and written data resulting from the study. You may print this form for your records.<br><br>CONTACT INFORMATION: If you have any questions, concerns or complaints about this research study, its procedures, risks and benefits, you should contact the Protocol Director Meghan Sumner at (650)-725-9336. If you are not satisfied with how this study is being conducted, or if you have any concerns, complaints, or general questions about the research or your rights as a participant, please contact the Stanford Institutional Review Board (IRB) to speak to someone independent of the research team at (650)-723-2480 or toll free at 1-866-680-2906. You can also write to the Stanford IRB, Stanford University, 3000 El Camino Real, Five Palo Alto Square, 4th Floor, Palo Alto, CA 94306 USA.<br><br>If you agree to participate, please proceed to the study tasks.</font></p>",,43559,0,html-button-response,
2057,Pilot,,instructions,,,,,,,,,,0.0-1.0, ,12640,"In this experiment, you will read a series of sentences and will be asked to indicate the word which best completes each one.<br><br><strong>Please type the word 'is', 'are', or 'am' in the blank, then press ENTER when you're ready to move on to the next sentence.</strong> <br><br>If you're unsure about your choice, follow your first instinct.<br><br>When you're ready to begin, press the space bar.",,56200,1,html-keyboard-response,
2057,Pilot,,,PP,the performers,P,3,the lifeguards,P,3,filler,85,0.0-2.0-0.0,['are'],,,"Both the performers and the lifeguards %is,are,am% helping remove lice from a child's hair.",93304,2,cloze,
2057,Pilot,,,Snull,I ,S,1,null,null,null,filler,60,0.0-2.0-0.1,['am'],,,"I  %is,are,am% eating my lunch.",98423,3,cloze,
2057,Pilot,,,PP,the technical writers,P,3,the zombies,P,3,filler,94,0.0-2.0-0.2,['are'],,,"Both the technical writers and the zombies %is,are,am% following a Bob Ross tutorial.",112392,4,cloze,
2057,Pilot,,,SS,Rebekah,S,3,Paige,S,3,filler,83,0.0-2.0-0.3,['are'],,,"Both Rebekah and Paige %is,are,am% designing tote bags for the funeral home.",116264,5,cloze,
2057,Pilot,,,SS,Isabel,S,3,David,S,3,filler,89,0.0-2.0-0.4,['are'],,,"Both Isabel and David %is,are,am% drinking black coffee.",120487,6,cloze,
2057,Pilot,,,Snull,Alice,S,3,null,null,null,filler,106,0.0-2.0-0.5,['is'],,,"Alice %is,are,am% planning to move to Kansas.",123048,7,cloze,
2057,Pilot,,,SP,the actor,S,3,we,P,1,critical,7,0.0-2.0-0.6,['are'],,,"Either the actor or we %is,are,am% investing in cryptocurrency.",134640,8,cloze,
2057,Pilot,,,Snull,I ,S,1,null,null,null,filler,69,0.0-2.0-0.7,['am'],,,"I  %is,are,am% working on my PhD.",136944,9,cloze,
2057,Pilot,,,PS,we,P,1,the sailor,S,3,critical,4,0.0-2.0-0.8,['are'],,,"Either we or the sailor %is,are,am% pleading with the Prime Minister.",141054,10,cloze,
2057,Pilot,,,SP,I,S,1,the sunbathers,P,3,critical,50,0.0-2.0-0.9,['are'],,,"Either I or the sunbathers %is,are,am% grading the term papers.",145840,11,cloze,
2057,Pilot,,,PS,we,P,1,I,S,1,critical,3,0.0-2.0-0.10,['are'],,,"Either we or I %is,are,am% signing up for karaoke.",151169,12,cloze,
2057,Pilot,,,SS,the landlord,S,3,I,S,1,critical,42,0.0-2.0-0.11,['are'],,,"Either the landlord or I %is,are,am% calling for help.",154384,13,cloze,
2057,Pilot,,,Snull,I ,S,1,null,null,null,filler,74,0.0-2.0-0.12,['am'],,,"I  %is,are,am% celebrating my sibling's birthday.",156208,14,cloze,
2057,Pilot,,,SP,the doctor,S,3,the fishers,P,3,critical,20,0.0-2.0-0.13,['are'],,,"Either the doctor or the fishers %is,are,am% running for public office.",160000,15,cloze,
2057,Pilot,,,Snull,Madison,S,3,null,null,null,filler,104,0.0-2.0-0.14,['is'],,,"Madison %is,are,am% interviewing people on the street.",163384,16,cloze,
2057,Pilot,,,PS,we,P,1,I,S,1,critical,51,0.0-2.0-0.15,['are'],,,"Either we or I %is,are,am% helping others.",168567,17,cloze,
2057,Pilot,,,PP,the astrologists,P,3,the dog trainers,P,3,filler,86,0.0-2.0-0.16,['are'],,,"Both the astrologists and the dog trainers %is,are,am% meditating at the airport.",173335,18,cloze,
2057,Pilot,,,PP,we,P,1,the programmers,P,3,critical,5,0.0-2.0-0.17,['are'],,,"Either we or the programmers %is,are,am% moving to Nairobi.",175984,19,cloze,
2057,Pilot,,,PP,the taxidermists,P,3,the security specialists,P,3,filler,91,0.0-2.0-0.18,['are'],,,"Both the taxidermists and the security specialists %is,are,am% painting over the original Mona Lisa.",179751,20,cloze,
2057,Pilot,,,Snull,Penelope,S,3,null,null,null,filler,117,0.0-2.0-0.19,['is'],,,"Penelope %is,are,am% catching the train uptown.",183096,21,cloze,
2057,Pilot,,,SP,the emperor,S,3,the taxidermists,P,3,critical,56,0.0-2.0-0.20,['are'],,,"Either the emperor or the taxidermists %is,are,am% writing a review of the circus performance.",187200,22,cloze,
2057,Pilot,,,Snull,I ,S,1,null,null,null,filler,62,0.0-2.0-0.21,['am'],,,"I  %is,are,am% reheating my day-old fries.",191441,23,cloze,
2057,Pilot,,,Snull,I ,S,1,null,null,null,filler,64,0.0-2.0-0.22,['am'],,,"I  %is,are,am% laughing at myself in the mirror.",193727,24,cloze,
2057,Pilot,,,Snull,Lily,S,3,null,null,null,filler,118,0.0-2.0-0.23,['is'],,,"Lily %is,are,am% accusing the actor of being a nepo baby.",197144,25,cloze,
2057,Pilot,,,PS,we,P,1,I,S,1,critical,39,0.0-2.0-0.24,['are'],,,"Either we or I %is,are,am% learning a new language.",204615,26,cloze,
2057,Pilot,,,PP,the runners,P,3,we,P,1,critical,10,0.0-2.0-0.25,['are'],,,"Either the runners or we %is,are,am% sunbathing on the beach.",209774,27,cloze,
2057,Pilot,,,SS,I,S,1,the therapist,S,3,critical,49,0.0-2.0-0.26,['are'],,,"Either I or the therapist %is,are,am% listening to Taylor's new album.",212528,28,cloze,
2057,Pilot,,,PS,the archaeologists,P,3,I,S,1,critical,21,0.0-2.0-0.27,['are'],,,"Either the archaeologists or I %is,are,am% visiting the capital of Lithuania.",218904,29,cloze,
2057,Pilot,,,PS,the professors,P,3,the firefighter,S,3,critical,47,0.0-2.0-0.28,['are'],,,"Either the professors or the firefighter %is,are,am% crying in the club.",222535,30,cloze,
2057,Pilot,,,PS,we,P,1,the dancer,S,3,critical,40,0.0-2.0-0.29,['are'],,,"Either we or the dancer %is,are,am% inspiring others.",229512,31,cloze,
2057,Pilot,,,PP,the orthodontists,P,3,the knitters,P,3,filler,97,0.0-2.0-0.30,['are'],,,"Both the orthodontists and the knitters %is,are,am% building a model train set.",232151,32,cloze,
2057,Pilot,,,PP,the butlers,P,3,we,P,1,critical,46,0.0-2.0-0.31,['are'],,,"Either the butlers or we %is,are,am% making a toy at Build-A-Bear.",237135,33,cloze,
2057,Pilot,,,Snull,I ,S,1,null,null,null,filler,68,0.0-2.0-0.32,['am'],,,"I  %is,are,am% getting my ears pierced.",238463,34,cloze,
2057,Pilot,,,PP,we,P,1,the performers,P,3,critical,29,0.0-2.0-0.33,['are'],,,"Either we or the performers %is,are,am% ordering for the table.",241151,35,cloze,
2057,Pilot,,,SP,the writer,S,3,the detectives,P,3,critical,8,0.0-2.0-0.34,['are'],,,"Either the writer or the detectives %is,are,am% celebrating World Rivers Day.",248863,36,cloze,
2057,Pilot,,,PP,the shoppers,P,3,the interlopers,P,3,filler,88,0.0-2.0-0.35,['are'],,,"Both the shoppers and the interlopers %is,are,am% playing Scrabble",252111,37,cloze,
2057,Pilot,,,Snull,Xavier,S,3,null,null,null,filler,101,0.0-2.0-0.36,['is'],,,"Xavier %is,are,am% solving the mystery case.",253504,38,cloze,
2057,Pilot,,,SS,the innkeeper,S,3,I,S,1,critical,30,0.0-2.0-0.37,['am'],,,"Either the innkeeper or I %is,are,am% attending a lecture on Jane Austen.",258447,39,cloze,
2057,Pilot,,,Snull,Georgia,S,3,null,null,null,filler,113,0.0-2.0-0.38,['is'],,,"Georgia %is,are,am% focusing on the task at hand.",264175,40,cloze,
2057,Pilot,,,Snull,I ,S,1,null,null,null,filler,78,0.0-2.0-0.39,['am'],,,"I  %is,are,am% helping my friend win back their ex.",265504,41,cloze,
2057,Pilot,,,SP,the mechanic,S,3,the lifeguards,P,3,critical,32,0.0-2.0-0.40,['are'],,,"Either the mechanic or the lifeguards %is,are,am% building a house.",269111,42,cloze,
2057,Pilot,,,Snull,Holly,S,3,null,null,null,filler,110,0.0-2.0-0.41,['is'],,,"Holly %is,are,am% eating without utensils.",271024,43,cloze,
2057,Pilot,,,PS,the wolves,P,3,I,S,1,critical,45,0.0-2.0-0.42,['are'],,,"Either the wolves or I %is,are,am% working on the puzzle.",272983,44,cloze,
2057,Pilot,,,PS,the bartenders,P,3,the zookeeper,S,3,critical,59,0.0-2.0-0.43,['are'],,,"Either the bartenders or the zookeeper %is,are,am% asking for more coffee.",275735,45,cloze,
2057,Pilot,,,PP,we,P,1,the children,P,3,critical,41,0.0-2.0-0.44,['are'],,,"Either we or the children %is,are,am% asking for assistance.",277904,46,cloze,
2057,Pilot,,,SP,the skateboarder,S,3,we,P,1,critical,19,0.0-2.0-0.45,['are'],,,"Either the skateboarder or we %is,are,am% preheating the oven.",280048,47,cloze,
2057,Pilot,,,SS,Olive,S,3,Simon,S,3,filler,80,0.0-2.0-0.46,['are'],,,"Both Olive and Simon %is,are,am% waving through a window.",282264,48,cloze,
2057,Pilot,,,Snull,I ,S,1,null,null,null,filler,77,0.0-2.0-0.47,['am'],,,"I  %is,are,am% getting my car detailed.",283464,49,cloze,
2057,Pilot,,,SP,the model,S,3,we,P,1,critical,55,0.0-2.0-0.48,['are'],,,"Either the model or we %is,are,am% hitting the jackpot.",289408,50,cloze,
2057,Pilot,,,PS,the zombies,P,3,I,S,1,critical,9,0.0-2.0-0.49,['are'],,,"Either the zombies or I %is,are,am% writing a self-help book.",291751,51,cloze,
2057,Pilot,,,Snull,I ,S,1,null,null,null,filler,75,0.0-2.0-0.50,['am'],,,"I  %is,are,am% rearranging my bedroom furniture.",293943,52,cloze,
2057,Pilot,,,Snull,Faith,S,3,null,null,null,filler,105,0.0-2.0-0.51,['is'],,,"Faith %is,are,am% looking for a clean pair of shorts.",295545,53,cloze,
2057,Pilot,,,Snull,I ,S,1,null,null,null,filler,61,0.0-2.0-0.52,['am'],,,"I  %is,are,am% feeding my firstborn.",296880,54,cloze,
2057,Pilot,,,SP,the door attendant,S,3,we,P,1,critical,43,0.0-2.0-0.53,['are'],,,"Either the door attendant or we %is,are,am% cleaning the inside of the oven.",299432,55,cloze,
2057,Pilot,,,Snull,I ,S,1,null,null,null,filler,73,0.0-2.0-0.54,['am'],,,"I  %is,are,am% teaching my cat Spanish.",300519,56,cloze,
2057,Pilot,,,PS,we,P,1,I,S,1,critical,27,0.0-2.0-0.55,['are'],,,"Either we or I %is,are,am% administering the exam.",303824,57,cloze,
2057,Pilot,,,SP,I,S,1,we,P,1,critical,0,0.0-2.0-0.56,['are'],,,"Either I or we %is,are,am% trying to remember the capital of Australia.",306535,58,cloze,
2057,Pilot,,,SS,the bus driver,S,3,I,S,1,critical,54,0.0-2.0-0.57,['are'],,,"Either the bus driver or I %is,are,am% welcoming the guests.",309552,59,cloze,
2057,Pilot,,,SP,the author,S,3,the tattoo artists,P,3,critical,44,0.0-2.0-0.58,['are'],,,"Either the author or the tattoo artists %is,are,am% drinking copious amounts of lemonade.",313688,60,cloze,
2057,Pilot,,,Snull,I ,S,1,null,null,null,filler,66,0.0-2.0-0.59,['am'],,,"I  %is,are,am% cooking dinner for my dog.",314976,61,cloze,
2057,Pilot,,,PS,the astrologists,P,3,the skier,S,3,critical,11,0.0-2.0-0.60,['are'],,,"Either the astrologists or the skier %is,are,am% conducting an experiment.",317656,62,cloze,
2057,Pilot,,,Snull,Emily,S,3,null,null,null,filler,115,0.0-2.0-0.61,['is'],,,"Emily %is,are,am% working on a new iPad.",318791,63,cloze,
2057,Pilot,,,Snull,Wendy,S,3,null,null,null,filler,114,0.0-2.0-0.62,['is'],,,"Wendy %is,are,am% trying to decipher the youths' slang.",320199,64,cloze,
2057,Pilot,,,Snull,Tiffany,S,3,null,null,null,filler,100,0.0-2.0-0.63,['is'],,,"Tiffany %is,are,am% folding napkins for the wedding.",321376,65,cloze,
2057,Pilot,,,Snull,Thomas,S,3,null,null,null,filler,111,0.0-2.0-0.64,['is'],,,"Thomas %is,are,am% trying to cleanse the negative energy in the house.",323350,66,cloze,
2057,Pilot,,,SP,I,S,1,we,P,1,critical,12,0.0-2.0-0.65,['are'],,,"Either I or we %is,are,am% laying the house's foundation.",328287,67,cloze,
2057,Pilot,,,SP,the banker,S,3,we,P,1,critical,31,0.0-2.0-0.66,['are'],,,"Either the banker or we %is,are,am% dancing in Saturday's recital.",332392,68,cloze,
2057,Pilot,,,Snull,I ,S,1,null,null,null,filler,72,0.0-2.0-0.67,['am'],,,"I  %is,are,am% conversing with my mother.",334023,69,cloze,
2057,Pilot,,,SS,I,S,1,the scientist,S,3,critical,1,0.0-2.0-0.68,['are'],,,"Either I or the scientist %is,are,am% exploring the ocean depths.",336159,70,cloze,
2057,Pilot,,,Snull,I ,S,1,null,null,null,filler,70,0.0-2.0-0.69,['am'],,,"I  %is,are,am% working on my third novel.",337167,71,cloze,
2057,Pilot,,,PP,the cashiers,P,3,we,P,1,critical,22,0.0-2.0-0.70,['are'],,,"Either the cashiers or we %is,are,am% dancing the Hula.",338495,72,cloze,
2057,Pilot,,,PP,the informants,P,3,we,P,1,critical,34,0.0-2.0-0.71,['are'],,,"Either the informants or we %is,are,am% ordering more paella.",340248,73,cloze,
2057,Pilot,,,Snull,I ,S,1,null,null,null,filler,76,0.0-2.0-0.72,['am'],,,"I  %is,are,am% helping my sister-in-law with her art history paper.",341311,74,cloze,
2057,Pilot,,,SS,Patrick,S,3,Zara,S,3,filler,82,0.0-2.0-0.73,['are'],,,"Both Patrick and Zara %is,are,am% putting together a heist.",342839,75,cloze,
2057,Pilot,,,Snull,Katherine,S,3,null,null,null,filler,108,0.0-2.0-0.74,['is'],,,"Katherine %is,are,am% going to the Broadway show.",344264,76,cloze,
2057,Pilot,,,PP,the realtors,P,3,we,P,1,critical,58,0.0-2.0-0.75,['are'],,,"Either the realtors or we %is,are,am% running a marathon.",345935,77,cloze,
2057,Pilot,,,Snull,I ,S,1,null,null,null,filler,67,0.0-2.0-0.76,['am'],,,"I  %is,are,am% wishing on a shooting star.",347719,78,cloze,
2057,Pilot,,,PP,we,P,1,the graphic designers,P,3,critical,17,0.0-2.0-0.77,['are'],,,"Either we or the graphic designers %is,are,am% dominating in League of Legends.",442503,79,cloze,
2057,Pilot,,,SP,I,S,1,the museum curators,P,3,critical,2,0.0-2.0-0.78,['are'],,,"Either I or the museum curators %is,are,am% going grocery shopping.",444223,80,cloze,
2057,Pilot,,,PS,the hitchhikers,P,3,the octopus,S,3,critical,23,0.0-2.0-0.79,['are'],,,"Either the hitchhikers or the octopus %is,are,am% dancing the macarena.",449663,81,cloze,
2057,Pilot,,,PP,the bodyguards,P,3,the cashiers,P,3,filler,90,0.0-2.0-0.80,['are'],,,"Both the bodyguards and the cashiers %is,are,am% reading the dictionary cover to cover.",451966,82,cloze,
2057,Pilot,,,PP,the graphic designers,P,3,the janitors,P,3,filler,96,0.0-2.0-0.81,['are'],,,"Both the graphic designers and the janitors %is,are,am% failing Spanish class.",456239,83,cloze,
2057,Pilot,,,SP,I,S,1,the sorcerers,P,3,critical,38,0.0-2.0-0.82,['are'],,,"Either I or the sorcerers %is,are,am% fixing the car.",457887,84,cloze,
2057,Pilot,,,SS,Noah,S,3,Mason,S,3,filler,95,0.0-2.0-0.83,['are'],,,"Both Noah and Mason %is,are,am% traveling down Route 66.",459847,85,cloze,
2057,Pilot,,,SP,I,S,1,we,P,1,critical,36,0.0-2.0-0.84,['are'],,,"Either I or we %is,are,am% teaching a class.",463072,86,cloze,
2057,Pilot,,,Snull,Oliver,S,3,null,null,null,filler,116,0.0-2.0-0.85,['is'],,,"Oliver %is,are,am% drinking a Diet Coke in the shower.",464560,87,cloze,
2057,Pilot,,,SS,the explorer,S,3,I,S,1,critical,18,0.0-2.0-0.86,['are'],,,"Either the explorer or I %is,are,am% celebrating the team's win.",474006,88,cloze,
2057,Pilot,,,Snull,I ,S,1,null,null,null,filler,79,0.0-2.0-0.87,['am'],,,"I  %is,are,am% giving my partner a high-five.",475287,89,cloze,
2057,Pilot,,,PP,the pedestrians,P,3,the customers,P,3,filler,81,0.0-2.0-0.88,['are'],,,"Both the pedestrians and the customers %is,are,am% blowing kisses to the Queen.",477383,90,cloze,
2057,Pilot,,,SS,I,S,1,the musician,S,3,critical,37,0.0-2.0-0.89,['are'],,,"Either I or the musician %is,are,am% helping the team win.",479136,91,cloze,
2057,Pilot,,,PS,the zoologists,P,3,I,S,1,critical,33,0.0-2.0-0.90,['are'],,,"Either the zoologists or I %is,are,am% writing a novel.",481224,92,cloze,
2057,Pilot,,,Snull,I ,S,1,null,null,null,filler,63,0.0-2.0-0.91,['am'],,,"I  %is,are,am% weeding my garden.",482264,93,cloze,
2057,Pilot,,,PS,the dog trainers,P,3,the farmer,S,3,critical,35,0.0-2.0-0.92,['are'],,,"Either the dog trainers or the farmer %is,are,am% building homes for the unhoused.",486336,94,cloze,
2057,Pilot,,,PS,we,P,1,the rancher,S,3,critical,16,0.0-2.0-0.93,['are'],,,"Either we or the rancher %is,are,am% making a difference.",488200,95,cloze,
2057,Pilot,,,SS,I,S,1,the composer,S,3,critical,13,0.0-2.0-0.94,['are'],,,"Either I or the composer %is,are,am% hitchhiking to British Columbia.",490567,96,cloze,
2057,Pilot,,,PP,the attendants,P,3,the actresses,P,3,filler,84,0.0-2.0-0.95,['are'],,,"Both the attendants and the actresses %is,are,am% purchasing new phones.",492544,97,cloze,
2057,Pilot,,,PS,we,P,1,I,S,1,critical,15,0.0-2.0-0.96,['are'],,,"Either we or I %is,are,am% feeling guilty for lying.",494047,98,cloze,
2057,Pilot,,,Snull,I ,S,1,null,null,null,filler,65,0.0-2.0-0.97,['am'],,,"I  %is,are,am% picking the onion out of my tomato soup.",495080,99,cloze,
2057,Pilot,,,SS,the police officer,S,3,I,S,1,critical,6,0.0-2.0-0.98,['are'],,,"Either the police officer or I %is,are,am% playing the guitar.",496360,100,cloze,
2057,Pilot,,,PP,the archaeologists,P,3,the pharmacists,P,3,filler,98,0.0-2.0-0.99,['are'],,,"Both the archaeologists and the pharmacists %is,are,am% helping a tiger escape the circus.",498528,101,cloze,
2057,Pilot,,,SP,I,S,1,we,P,1,critical,24,0.0-2.0-0.100,['are'],,,"Either I or we %is,are,am% reading the latest Stephen King novel.",499992,102,cloze,
2057,Pilot,,,Snull,I ,S,1,null,null,null,filler,71,0.0-2.0-0.101,['am'],,,"I  %is,are,am% trying to find my Halloween candy.",500992,103,cloze,
2057,Pilot,,,PS,the novelists,P,3,I,S,1,critical,57,0.0-2.0-0.102,['are'],,,"Either the novelists or I %is,are,am% designing a website.",502864,104,cloze,
2057,Pilot,,,Snull,Uma,S,3,null,null,null,filler,107,0.0-2.0-0.103,['is'],,,"Uma %is,are,am% reading the magazine.",504984,105,cloze,
2057,Pilot,,,SS,I,S,1,the rock climber,S,3,critical,25,0.0-2.0-0.104,['are'],,,"Either I or the rock climber %is,are,am% traveling the world.",511544,106,cloze,
2057,Pilot,,,Snull,Emma,S,3,null,null,null,filler,102,0.0-2.0-0.105,['is'],,,"Emma %is,are,am% opening the fridge.",512696,107,cloze,
2057,Pilot,,,SP,I,S,1,we,P,1,critical,48,0.0-2.0-0.106,['are'],,,"Either I or we %is,are,am% camping in the Redwood forest.",514248,108,cloze,
2057,Pilot,,,SP,I,S,1,the shoemakers,P,3,critical,14,0.0-2.0-0.107,['are'],,,"Either I or the shoemakers %is,are,am% watching the movie.",516384,109,cloze,
2057,Pilot,,,Snull,Taylor,S,3,null,null,null,filler,119,0.0-2.0-0.108,['is'],,,"Taylor %is,are,am% shopping online for linen shirts.",518000,110,cloze,
2057,Pilot,,,SS,Hannah,S,3,Yaryn,S,3,filler,92,0.0-2.0-0.109,['are'],,,"Both Hannah and Yaryn %is,are,am% planning a trip to Jupiter.",519737,111,cloze,
2057,Pilot,,,Snull,Kevin,S,3,null,null,null,filler,112,0.0-2.0-0.110,['is'],,,"Kevin %is,are,am% hoping for a miracle.",520840,112,cloze,
2057,Pilot,,,PP,the acrobats,P,3,the screenwriters,P,3,filler,99,0.0-2.0-0.111,['are'],,,"Both the acrobats and the screenwriters %is,are,am% seeking external validation.",523240,113,cloze,
2057,Pilot,,,Snull,Natalie,S,3,null,null,null,filler,103,0.0-2.0-0.112,['is'],,,"Natalie %is,are,am% texting the group chat about the tea.",525760,114,cloze,
2057,Pilot,,,SP,I,S,1,the villains,P,3,critical,26,0.0-2.0-0.113,['are'],,,"Either I or the villains %is,are,am% making a hearty stew.",528087,115,cloze,
2057,Pilot,,,PP,we,P,1,the cooks,P,3,critical,53,0.0-2.0-0.114,['are'],,,"Either we or the cooks %is,are,am% running the meeting.",530160,116,cloze,
2057,Pilot,,,PP,the professors,P,3,the manicurists,P,3,filler,87,0.0-2.0-0.115,['are'],,,"Both the professors and the manicurists %is,are,am% participating in a beauty pageant.",535528,117,cloze,
2057,Pilot,,,SS,Xena,S,3,Cora,S,3,filler,93,0.0-2.0-0.116,['are'],,,"Both Xena and Cora %is,are,am% brushing a cat.",538128,118,cloze,
2057,Pilot,,,PS,we,P,1,the man,S,3,critical,28,0.0-2.0-0.117,['are'],,,"Either we or the man %is,are,am% starting a business.",540031,119,cloze,
2057,Pilot,,,PS,we,P,1,the painter,S,3,critical,52,0.0-2.0-0.118,['are'],,,"Either we or the painter %is,are,am% going to the moon.",541839,120,cloze,
2057,Pilot,,,Snull,Tristan,S,3,null,null,null,filler,109,0.0-2.0-0.119,['is'],,,"Tristan %is,are,am% arranging a bouquet.",543463,121,cloze,
2057,Pilot,[],demographics,,,,,,,,,,0.0-3.0,"{'age': '', 'P0_Q0': None, 'enjoy': '', 'gender': 'Male', 'correct': 'Yes', 'payment': '', 'comments': '', 'language': 'Yes', 'education': '', 'other-language': ''}",29093,,,572599,122,survey,
2057,Pilot,,thanks,,,,,,,,,,0.0-4.0,0,2014,Thank you for your time! Please click 'Continue' and then wait a moment until you're directed back to Prolific.<br><br>,,574614,123,html-button-response,
2056,Pilot,,irb,,,,,,,,,,0.0-0.0,0,31486,"<p><font size=""3"">We invite you to participate in a research study on language production and comprehension. Your experimenter will ask you to do a linguistic task such as reading sentences or words, naming pictures or describing scenes, making up sentences of your own, or participating in a simple language game. <br><br>There are no risks or benefits of any kind involved in this study. <br><br>You will be paid for your participation at the posted rate.<br><br>If you have read this form and have decided to participate in this experiment, please understand your participation is voluntary and you have the right to withdraw your consent or discontinue participation at anytime without penalty or loss of benefits to which you are otherwise entitled. You have the right to refuse to do particular tasks. Your individual privacy will be maintained in all published and written data resulting from the study. You may print this form for your records.<br><br>CONTACT INFORMATION: If you have any questions, concerns or complaints about this research study, its procedures, risks and benefits, you should contact the Protocol Director Meghan Sumner at (650)-725-9336. If you are not satisfied with how this study is being conducted, or if you have any concerns, complaints, or general questions about the research or your rights as a participant, please contact the Stanford Institutional Review Board (IRB) to speak to someone independent of the research team at (650)-723-2480 or toll free at 1-866-680-2906. You can also write to the Stanford IRB, Stanford University, 3000 El Camino Real, Five Palo Alto Square, 4th Floor, Palo Alto, CA 94306 USA.<br><br>If you agree to participate, please proceed to the study tasks.</font></p>",,31490,0,html-button-response,
2056,Pilot,,instructions,,,,,,,,,,0.0-1.0, ,241321,"In this experiment, you will read a series of sentences and will be asked to indicate the word which best completes each one.<br><br><strong>Please type the word 'is', 'are', or 'am' in the blank, then press ENTER when you're ready to move on to the next sentence.</strong> <br><br>If you're unsure about your choice, follow your first instinct.<br><br>When you're ready to begin, press the space bar.",,272811,1,html-keyboard-response,
2056,Pilot,,,Snull,Lily,S,3,null,null,null,filler,118,0.0-2.0-0.0,['is'],,,"Lily %is,are,am% accusing the actor of being a nepo baby.",284444,2,cloze,
2056,Pilot,,,SS,Isabel,S,3,David,S,3,filler,89,0.0-2.0-0.1,['are'],,,"Both Isabel and David %is,are,am% drinking black coffee.",293008,3,cloze,
2056,Pilot,,,PP,the pedestrians,P,3,the customers,P,3,filler,81,0.0-2.0-0.2,['are'],,,"Both the pedestrians and the customers %is,are,am% blowing kisses to the Queen.",299628,4,cloze,
2056,Pilot,,,SS,I,S,1,the composer,S,3,critical,13,0.0-2.0-0.3,['is'],,,"Either I or the composer %is,are,am% hitchhiking to British Columbia.",315178,5,cloze,
2056,Pilot,,,PS,the zombies,P,3,I,S,1,critical,9,0.0-2.0-0.4,['are'],,,"Either the zombies or I %is,are,am% writing a self-help book.",322444,6,cloze,
2056,Pilot,,,SP,I,S,1,the museum curators,P,3,critical,2,0.0-2.0-0.5,['are'],,,"Either I or the museum curators %is,are,am% going grocery shopping.",327328,7,cloze,
2056,Pilot,,,Snull,Katherine,S,3,null,null,null,filler,108,0.0-2.0-0.6,['is'],,,"Katherine %is,are,am% going to the Broadway show.",330394,8,cloze,
2056,Pilot,,,Snull,Georgia,S,3,null,null,null,filler,113,0.0-2.0-0.7,['is'],,,"Georgia %is,are,am% focusing on the task at hand.",333606,9,cloze,
2056,Pilot,,,SP,I,S,1,we,P,1,critical,48,0.0-2.0-0.8,['are'],,,"Either I or we %is,are,am% camping in the Redwood forest.",339534,10,cloze,
2056,Pilot,,,SS,the police officer,S,3,I,S,1,critical,6,0.0-2.0-0.9,['is'],,,"Either the police officer or I %is,are,am% playing the guitar.",351791,11,cloze,
2056,Pilot,,,Snull,I ,S,1,null,null,null,filler,62,0.0-2.0-0.10,['am'],,,"I  %is,are,am% reheating my day-old fries.",354415,12,cloze,
2056,Pilot,,,Snull,Faith,S,3,null,null,null,filler,105,0.0-2.0-0.11,['is'],,,"Faith %is,are,am% looking for a clean pair of shorts.",357419,13,cloze,
2056,Pilot,,,PS,we,P,1,the sailor,S,3,critical,4,0.0-2.0-0.12,['are'],,,"Either we or the sailor %is,are,am% pleading with the Prime Minister.",362898,14,cloze,
2056,Pilot,,,PS,we,P,1,I,S,1,critical,39,0.0-2.0-0.13,['am'],,,"Either we or I %is,are,am% learning a new language.",371688,15,cloze,
2056,Pilot,,,Snull,Tristan,S,3,null,null,null,filler,109,0.0-2.0-0.14,['is'],,,"Tristan %is,are,am% arranging a bouquet.",374919,16,cloze,
2056,Pilot,,,Snull,I ,S,1,null,null,null,filler,71,0.0-2.0-0.15,['am'],,,"I  %is,are,am% trying to find my Halloween candy.",377095,17,cloze,
2056,Pilot,,,SP,I,S,1,the villains,P,3,critical,26,0.0-2.0-0.16,['are'],,,"Either I or the villains %is,are,am% making a hearty stew.",383504,18,cloze,
2056,Pilot,,,PP,the bodyguards,P,3,the cashiers,P,3,filler,90,0.0-2.0-0.17,['are'],,,"Both the bodyguards and the cashiers %is,are,am% reading the dictionary cover to cover.",389857,19,cloze,
2056,Pilot,,,PP,the butlers,P,3,we,P,1,critical,46,0.0-2.0-0.18,['are'],,,"Either the butlers or we %is,are,am% making a toy at Build-A-Bear.",397215,20,cloze,
2056,Pilot,,,PP,the technical writers,P,3,the zombies,P,3,filler,94,0.0-2.0-0.19,['are'],,,"Both the technical writers and the zombies %is,are,am% following a Bob Ross tutorial.",401394,21,cloze,
2056,Pilot,,,PS,the hitchhikers,P,3,the octopus,S,3,critical,23,0.0-2.0-0.20,['are'],,,"Either the hitchhikers or the octopus %is,are,am% dancing the macarena.",404816,22,cloze,
2056,Pilot,,,Snull,Xavier,S,3,null,null,null,filler,101,0.0-2.0-0.21,['is'],,,"Xavier %is,are,am% solving the mystery case.",407372,23,cloze,
2056,Pilot,,,PS,we,P,1,the man,S,3,critical,28,0.0-2.0-0.22,['are'],,,"Either we or the man %is,are,am% starting a business.",410825,24,cloze,
2056,Pilot,,,Snull,I ,S,1,null,null,null,filler,68,0.0-2.0-0.23,['am'],,,"I  %is,are,am% getting my ears pierced.",413183,25,cloze,
2056,Pilot,,,PS,the archaeologists,P,3,I,S,1,critical,21,0.0-2.0-0.24,['are'],,,"Either the archaeologists or I %is,are,am% visiting the capital of Lithuania.",418374,26,cloze,
2056,Pilot,,,PP,the orthodontists,P,3,the knitters,P,3,filler,97,0.0-2.0-0.25,['are'],,,"Both the orthodontists and the knitters %is,are,am% building a model train set.",424205,27,cloze,
2056,Pilot,,,Snull,I ,S,1,null,null,null,filler,76,0.0-2.0-0.26,['am'],,,"I  %is,are,am% helping my sister-in-law with her art history paper.",427459,28,cloze,
2056,Pilot,,,Snull,I ,S,1,null,null,null,filler,67,0.0-2.0-0.27,['am'],,,"I  %is,are,am% wishing on a shooting star.",433516,29,cloze,
2056,Pilot,,,Snull,I ,S,1,null,null,null,filler,73,0.0-2.0-0.28,['am'],,,"I  %is,are,am% teaching my cat Spanish.",436482,30,cloze,
2056,Pilot,,,SP,the banker,S,3,we,P,1,critical,31,0.0-2.0-0.29,['are'],,,"Either the banker or we %is,are,am% dancing in Saturday's recital.",439872,31,cloze,
2056,Pilot,,,SP,I,S,1,the shoemakers,P,3,critical,14,0.0-2.0-0.30,['are'],,,"Either I or the shoemakers %is,are,am% watching the movie.",446594,32,cloze,
2056,Pilot,,,Snull,Emma,S,3,null,null,null,filler,102,0.0-2.0-0.31,['is'],,,"Emma %is,are,am% opening the fridge.",449434,33,cloze,
2056,Pilot,,,Snull,Tiffany,S,3,null,null,null,filler,100,0.0-2.0-0.32,['is'],,,"Tiffany %is,are,am% folding napkins for the wedding.",456349,34,cloze,
2056,Pilot,,,SP,I,S,1,we,P,1,critical,24,0.0-2.0-0.33,['are'],,,"Either I or we %is,are,am% reading the latest Stephen King novel.",459790,35,cloze,
2056,Pilot,,,Snull,Uma,S,3,null,null,null,filler,107,0.0-2.0-0.34,['is'],,,"Uma %is,are,am% reading the magazine.",462694,36,cloze,
2056,Pilot,,,PP,we,P,1,the programmers,P,3,critical,5,0.0-2.0-0.35,['are'],,,"Either we or the programmers %is,are,am% moving to Nairobi.",465841,37,cloze,
2056,Pilot,,,SP,the doctor,S,3,the fishers,P,3,critical,20,0.0-2.0-0.36,['are'],,,"Either the doctor or the fishers %is,are,am% running for public office.",469245,38,cloze,
2056,Pilot,,,SP,the model,S,3,we,P,1,critical,55,0.0-2.0-0.37,['are'],,,"Either the model or we %is,are,am% hitting the jackpot.",472549,39,cloze,
2056,Pilot,,,Snull,Thomas,S,3,null,null,null,filler,111,0.0-2.0-0.38,['is'],,,"Thomas %is,are,am% trying to cleanse the negative energy in the house.",474863,40,cloze,
2056,Pilot,,,Snull,Madison,S,3,null,null,null,filler,104,0.0-2.0-0.39,['is'],,,"Madison %is,are,am% interviewing people on the street.",477681,41,cloze,
2056,Pilot,,,Snull,Alice,S,3,null,null,null,filler,106,0.0-2.0-0.40,['is'],,,"Alice %is,are,am% planning to move to Kansas.",479638,42,cloze,
2056,Pilot,,,Snull,I ,S,1,null,null,null,filler,64,0.0-2.0-0.41,['am'],,,"I  %is,are,am% laughing at myself in the mirror.",481777,43,cloze,
2056,Pilot,,,Snull,I ,S,1,null,null,null,filler,69,0.0-2.0-0.42,['am'],,,"I  %is,are,am% working on my PhD.",483528,44,cloze,
2056,Pilot,,,Snull,I ,S,1,null,null,null,filler,66,0.0-2.0-0.43,['am'],,,"I  %is,are,am% cooking dinner for my dog.",485257,45,cloze,
2056,Pilot,,,Snull,Taylor,S,3,null,null,null,filler,119,0.0-2.0-0.44,['is'],,,"Taylor %is,are,am% shopping online for linen shirts.",487158,46,cloze,
2056,Pilot,,,SS,the bus driver,S,3,I,S,1,critical,54,0.0-2.0-0.45,['are'],,,"Either the bus driver or I %is,are,am% welcoming the guests.",491804,47,cloze,
2056,Pilot,,,SP,the actor,S,3,we,P,1,critical,7,0.0-2.0-0.46,['are'],,,"Either the actor or we %is,are,am% investing in cryptocurrency.",495728,48,cloze,
2056,Pilot,,,SS,Noah,S,3,Mason,S,3,filler,95,0.0-2.0-0.47,['are'],,,"Both Noah and Mason %is,are,am% traveling down Route 66.",498841,49,cloze,
2056,Pilot,,,PS,we,P,1,I,S,1,critical,15,0.0-2.0-0.48,['is'],,,"Either we or I %is,are,am% feeling guilty for lying.",506184,50,cloze,
2056,Pilot,,,SP,I,S,1,we,P,1,critical,12,0.0-2.0-0.49,['are'],,,"Either I or we %is,are,am% laying the house's foundation.",509897,51,cloze,
2056,Pilot,,,SP,the writer,S,3,the detectives,P,3,critical,8,0.0-2.0-0.50,['are'],,,"Either the writer or the detectives %is,are,am% celebrating World Rivers Day.",513260,52,cloze,
2056,Pilot,,,Snull,I ,S,1,null,null,null,filler,78,0.0-2.0-0.51,['am'],,,"I  %is,are,am% helping my friend win back their ex.",515211,53,cloze,
2056,Pilot,,,SS,I,S,1,the musician,S,3,critical,37,0.0-2.0-0.52,['are'],,,"Either I or the musician %is,are,am% helping the team win.",517652,54,cloze,
2056,Pilot,,,PS,we,P,1,I,S,1,critical,27,0.0-2.0-0.53,['am'],,,"Either we or I %is,are,am% administering the exam.",523623,55,cloze,
2056,Pilot,,,PP,the acrobats,P,3,the screenwriters,P,3,filler,99,0.0-2.0-0.54,['are'],,,"Both the acrobats and the screenwriters %is,are,am% seeking external validation.",527488,56,cloze,
2056,Pilot,,,Snull,Holly,S,3,null,null,null,filler,110,0.0-2.0-0.55,['is'],,,"Holly %is,are,am% eating without utensils.",529778,57,cloze,
2056,Pilot,,,PP,the informants,P,3,we,P,1,critical,34,0.0-2.0-0.56,['are'],,,"Either the informants or we %is,are,am% ordering more paella.",532656,58,cloze,
2056,Pilot,,,SP,the door attendant,S,3,we,P,1,critical,43,0.0-2.0-0.57,['are'],,,"Either the door attendant or we %is,are,am% cleaning the inside of the oven.",536112,59,cloze,
2056,Pilot,,,SS,Hannah,S,3,Yaryn,S,3,filler,92,0.0-2.0-0.58,['are'],,,"Both Hannah and Yaryn %is,are,am% planning a trip to Jupiter.",541167,60,cloze,
2056,Pilot,,,PS,the zoologists,P,3,I,S,1,critical,33,0.0-2.0-0.59,['is'],,,"Either the zoologists or I %is,are,am% writing a novel.",545587,61,cloze,
2056,Pilot,,,PS,the wolves,P,3,I,S,1,critical,45,0.0-2.0-0.60,['are'],,,"Either the wolves or I %is,are,am% working on the puzzle.",548744,62,cloze,
2056,Pilot,,,PS,the astrologists,P,3,the skier,S,3,critical,11,0.0-2.0-0.61,['are'],,,"Either the astrologists or the skier %is,are,am% conducting an experiment.",553992,63,cloze,
2056,Pilot,,,SS,the landlord,S,3,I,S,1,critical,42,0.0-2.0-0.62,['is'],,,"Either the landlord or I %is,are,am% calling for help.",559297,64,cloze,
2056,Pilot,,,Snull,Emily,S,3,null,null,null,filler,115,0.0-2.0-0.63,['is'],,,"Emily %is,are,am% working on a new iPad.",561250,65,cloze,
2056,Pilot,,,PP,we,P,1,the performers,P,3,critical,29,0.0-2.0-0.64,['are'],,,"Either we or the performers %is,are,am% ordering for the table.",564013,66,cloze,
2056,Pilot,,,PP,the cashiers,P,3,we,P,1,critical,22,0.0-2.0-0.65,['are'],,,"Either the cashiers or we %is,are,am% dancing the Hula.",566178,67,cloze,
2056,Pilot,,,PP,we,P,1,the graphic designers,P,3,critical,17,0.0-2.0-0.66,['are'],,,"Either we or the graphic designers %is,are,am% dominating in League of Legends.",568317,68,cloze,
2056,Pilot,,,PP,the performers,P,3,the lifeguards,P,3,filler,85,0.0-2.0-0.67,['are'],,,"Both the performers and the lifeguards %is,are,am% helping remove lice from a child's hair.",570908,69,cloze,
2056,Pilot,,,SP,I,S,1,the sunbathers,P,3,critical,50,0.0-2.0-0.68,['are'],,,"Either I or the sunbathers %is,are,am% grading the term papers.",575040,70,cloze,
2056,Pilot,,,Snull,I ,S,1,null,null,null,filler,75,0.0-2.0-0.69,['am'],,,"I  %is,are,am% rearranging my bedroom furniture.",576241,71,cloze,
2056,Pilot,,,SP,I,S,1,the sorcerers,P,3,critical,38,0.0-2.0-0.70,['are'],,,"Either I or the sorcerers %is,are,am% fixing the car.",578172,72,cloze,
2056,Pilot,,,Snull,I ,S,1,null,null,null,filler,61,0.0-2.0-0.71,['am'],,,"I  %is,are,am% feeding my firstborn.",579232,73,cloze,
2056,Pilot,,,PP,the graphic designers,P,3,the janitors,P,3,filler,96,0.0-2.0-0.72,['are'],,,"Both the graphic designers and the janitors %is,are,am% failing Spanish class.",581333,74,cloze,
2056,Pilot,,,SS,the innkeeper,S,3,I,S,1,critical,30,0.0-2.0-0.73,['is'],,,"Either the innkeeper or I %is,are,am% attending a lecture on Jane Austen.",585745,75,cloze,
2056,Pilot,,,SP,the mechanic,S,3,the lifeguards,P,3,critical,32,0.0-2.0-0.74,['are'],,,"Either the mechanic or the lifeguards %is,are,am% building a house.",587822,76,cloze,
2056,Pilot,,,PP,the realtors,P,3,we,P,1,critical,58,0.0-2.0-0.75,['are'],,,"Either the realtors or we %is,are,am% running a marathon.",589936,77,cloze,
2056,Pilot,,,Snull,I ,S,1,null,null,null,filler,60,0.0-2.0-0.76,['am'],,,"I  %is,are,am% eating my lunch.",590968,78,cloze,
2056,Pilot,,,Snull,Kevin,S,3,null,null,null,filler,112,0.0-2.0-0.77,['is'],,,"Kevin %is,are,am% hoping for a miracle.",592331,79,cloze,
2056,Pilot,,,Snull,I ,S,1,null,null,null,filler,65,0.0-2.0-0.78,['am'],,,"I  %is,are,am% picking the onion out of my tomato soup.",593693,80,cloze,
2056,Pilot,,,SS,the explorer,S,3,I,S,1,critical,18,0.0-2.0-0.79,['are'],,,"Either the explorer or I %is,are,am% celebrating the team's win.",607889,81,cloze,
2056,Pilot,,,PP,the professors,P,3,the manicurists,P,3,filler,87,0.0-2.0-0.80,['are'],,,"Both the professors and the manicurists %is,are,am% participating in a beauty pageant.",610361,82,cloze,
2056,Pilot,,,SP,the author,S,3,the tattoo artists,P,3,critical,44,0.0-2.0-0.81,['is'],,,"Either the author or the tattoo artists %is,are,am% drinking copious amounts of lemonade.",614875,83,cloze,
2056,Pilot,,,SS,Rebekah,S,3,Paige,S,3,filler,83,0.0-2.0-0.82,['are'],,,"Both Rebekah and Paige %is,are,am% designing tote bags for the funeral home.",617939,84,cloze,
2056,Pilot,,,Snull,I ,S,1,null,null,null,filler,63,0.0-2.0-0.83,['am'],,,"I  %is,are,am% weeding my garden.",619888,85,cloze,
2056,Pilot,,,Snull,I ,S,1,null,null,null,filler,70,0.0-2.0-0.84,['am'],,,"I  %is,are,am% working on my third novel.",620936,86,cloze,
2056,Pilot,,,PP,the archaeologists,P,3,the pharmacists,P,3,filler,98,0.0-2.0-0.85,['are'],,,"Both the archaeologists and the pharmacists %is,are,am% helping a tiger escape the circus.",623494,87,cloze,
2056,Pilot,,,PS,the dog trainers,P,3,the farmer,S,3,critical,35,0.0-2.0-0.86,['are'],,,"Either the dog trainers or the farmer %is,are,am% building homes for the unhoused.",634303,88,cloze,
2056,Pilot,,,SS,Olive,S,3,Simon,S,3,filler,80,0.0-2.0-0.87,['are'],,,"Both Olive and Simon %is,are,am% waving through a window.",637113,89,cloze,
2056,Pilot,,,SP,I,S,1,we,P,1,critical,0,0.0-2.0-0.88,['are'],,,"Either I or we %is,are,am% trying to remember the capital of Australia.",640141,90,cloze,
2056,Pilot,,,PP,the attendants,P,3,the actresses,P,3,filler,84,0.0-2.0-0.89,['are'],,,"Both the attendants and the actresses %is,are,am% purchasing new phones.",642331,91,cloze,
2056,Pilot,,,PS,we,P,1,I,S,1,critical,3,0.0-2.0-0.90,['am'],,,"Either we or I %is,are,am% signing up for karaoke.",647901,92,cloze,
2056,Pilot,,,SS,I,S,1,the therapist,S,3,critical,49,0.0-2.0-0.91,['is'],,,"Either I or the therapist %is,are,am% listening to Taylor's new album.",655825,93,cloze,
2056,Pilot,,,PS,the bartenders,P,3,the zookeeper,S,3,critical,59,0.0-2.0-0.92,['is'],,,"Either the bartenders or the zookeeper %is,are,am% asking for more coffee.",659520,94,cloze,
2056,Pilot,,,PP,the astrologists,P,3,the dog trainers,P,3,filler,86,0.0-2.0-0.93,['are'],,,"Both the astrologists and the dog trainers %is,are,am% meditating at the airport.",662724,95,cloze,
2056,Pilot,,,Snull,Oliver,S,3,null,null,null,filler,116,0.0-2.0-0.94,['is'],,,"Oliver %is,are,am% drinking a Diet Coke in the shower.",664490,96,cloze,
2056,Pilot,,,PS,we,P,1,the rancher,S,3,critical,16,0.0-2.0-0.95,['are'],,,"Either we or the rancher %is,are,am% making a difference.",668210,97,cloze,
2056,Pilot,,,PS,we,P,1,the dancer,S,3,critical,40,0.0-2.0-0.96,['are'],,,"Either we or the dancer %is,are,am% inspiring others.",676169,98,cloze,
2056,Pilot,,,PP,we,P,1,the children,P,3,critical,41,0.0-2.0-0.97,['are'],,,"Either we or the children %is,are,am% asking for assistance.",678375,99,cloze,
2056,Pilot,,,Snull,I ,S,1,null,null,null,filler,72,0.0-2.0-0.98,['am'],,,"I  %is,are,am% conversing with my mother.",679525,100,cloze,
2056,Pilot,,,PS,we,P,1,I,S,1,critical,51,0.0-2.0-0.99,['are'],,,"Either we or I %is,are,am% helping others.",682375,101,cloze,
2056,Pilot,,,PP,the runners,P,3,we,P,1,critical,10,0.0-2.0-0.100,['are'],,,"Either the runners or we %is,are,am% sunbathing on the beach.",684665,102,cloze,
2056,Pilot,,,PS,the novelists,P,3,I,S,1,critical,57,0.0-2.0-0.101,['are'],,,"Either the novelists or I %is,are,am% designing a website.",687073,103,cloze,
2056,Pilot,,,PS,the professors,P,3,the firefighter,S,3,critical,47,0.0-2.0-0.102,['are'],,,"Either the professors or the firefighter %is,are,am% crying in the club.",691905,104,cloze,
2056,Pilot,,,SP,I,S,1,we,P,1,critical,36,0.0-2.0-0.103,['are'],,,"Either I or we %is,are,am% teaching a class.",696058,105,cloze,
2056,Pilot,,,Snull,I ,S,1,null,null,null,filler,74,0.0-2.0-0.104,['am'],,,"I  %is,are,am% celebrating my sibling's birthday.",697123,106,cloze,
2056,Pilot,,,SP,the skateboarder,S,3,we,P,1,critical,19,0.0-2.0-0.105,['are'],,,"Either the skateboarder or we %is,are,am% preheating the oven.",698831,107,cloze,
2056,Pilot,,,SS,Patrick,S,3,Zara,S,3,filler,82,0.0-2.0-0.106,['are'],,,"Both Patrick and Zara %is,are,am% putting together a heist.",700669,108,cloze,
2056,Pilot,,,PS,we,P,1,the painter,S,3,critical,52,0.0-2.0-0.107,['are'],,,"Either we or the painter %is,are,am% going to the moon.",713033,109,cloze,
2056,Pilot,,,Snull,I ,S,1,null,null,null,filler,77,0.0-2.0-0.108,['am'],,,"I  %is,are,am% getting my car detailed.",714105,110,cloze,
2056,Pilot,,,PP,we,P,1,the cooks,P,3,critical,53,0.0-2.0-0.109,['are'],,,"Either we or the cooks %is,are,am% running the meeting.",718089,111,cloze,
2056,Pilot,,,SS,I,S,1,the scientist,S,3,critical,1,0.0-2.0-0.110,['are'],,,"Either I or the scientist %is,are,am% exploring the ocean depths.",724272,112,cloze,
2056,Pilot,,,SS,Xena,S,3,Cora,S,3,filler,93,0.0-2.0-0.111,['are'],,,"Both Xena and Cora %is,are,am% brushing a cat.",726140,113,cloze,
2056,Pilot,,,PP,the shoppers,P,3,the interlopers,P,3,filler,88,0.0-2.0-0.112,['are'],,,"Both the shoppers and the interlopers %is,are,am% playing Scrabble",728195,114,cloze,
2056,Pilot,,,SP,the emperor,S,3,the taxidermists,P,3,critical,56,0.0-2.0-0.113,['are'],,,"Either the emperor or the taxidermists %is,are,am% writing a review of the circus performance.",732072,115,cloze,
2056,Pilot,,,Snull,I ,S,1,null,null,null,filler,79,0.0-2.0-0.114,['am'],,,"I  %is,are,am% giving my partner a high-five.",733073,116,cloze,
2056,Pilot,,,PP,the taxidermists,P,3,the security specialists,P,3,filler,91,0.0-2.0-0.115,['are'],,,"Both the taxidermists and the security specialists %is,are,am% painting over the original Mona Lisa.",736316,117,cloze,
2056,Pilot,,,Snull,Natalie,S,3,null,null,null,filler,103,0.0-2.0-0.116,['is'],,,"Natalie %is,are,am% texting the group chat about the tea.",738168,118,cloze,
2056,Pilot,,,SS,I,S,1,the rock climber,S,3,critical,25,0.0-2.0-0.117,['is'],,,"Either I or the rock climber %is,are,am% traveling the world.",746472,119,cloze,
2056,Pilot,,,Snull,Penelope,S,3,null,null,null,filler,117,0.0-2.0-0.118,['is'],,,"Penelope %is,are,am% catching the train uptown.",747631,120,cloze,
2056,Pilot,,,Snull,Wendy,S,3,null,null,null,filler,114,0.0-2.0-0.119,['is'],,,"Wendy %is,are,am% trying to decipher the youths' slang.",748704,121,cloze,
2056,Pilot,[],demographics,,,,,,,,,,0.0-3.0,"{'age': '32', 'P0_Q0': None, 'enjoy': 'An average experiment', 'gender': 'Male', 'correct': 'Yes', 'payment': 'The payment was fair', 'comments': 'no', 'language': 'Yes', 'education': 'Some college', 'other-language': 'Spanish'}",27839,,,776574,122,survey,
2056,Pilot,,thanks,,,,,,,,,,0.0-4.0,0,3438,Thank you for your time! Please click 'Continue' and then wait a moment until you're directed back to Prolific.<br><br>,,780013,123,html-button-response,
2061,Pilot,,irb,,,,,,,,,,0.0-0.0,0,59102,"<p><font size=""3"">We invite you to participate in a research study on language production and comprehension. Your experimenter will ask you to do a linguistic task such as reading sentences or words, naming pictures or describing scenes, making up sentences of your own, or participating in a simple language game. <br><br>There are no risks or benefits of any kind involved in this study. <br><br>You will be paid for your participation at the posted rate.<br><br>If you have read this form and have decided to participate in this experiment, please understand your participation is voluntary and you have the right to withdraw your consent or discontinue participation at anytime without penalty or loss of benefits to which you are otherwise entitled. You have the right to refuse to do particular tasks. Your individual privacy will be maintained in all published and written data resulting from the study. You may print this form for your records.<br><br>CONTACT INFORMATION: If you have any questions, concerns or complaints about this research study, its procedures, risks and benefits, you should contact the Protocol Director Meghan Sumner at (650)-725-9336. If you are not satisfied with how this study is being conducted, or if you have any concerns, complaints, or general questions about the research or your rights as a participant, please contact the Stanford Institutional Review Board (IRB) to speak to someone independent of the research team at (650)-723-2480 or toll free at 1-866-680-2906. You can also write to the Stanford IRB, Stanford University, 3000 El Camino Real, Five Palo Alto Square, 4th Floor, Palo Alto, CA 94306 USA.<br><br>If you agree to participate, please proceed to the study tasks.</font></p>",,59107,0,html-button-response,
2061,Pilot,,instructions,,,,,,,,,,0.0-1.0, ,13451,"In this experiment, you will read a series of sentences and will be asked to indicate the word which best completes each one.<br><br><strong>Please type the word 'is', 'are', or 'am' in the blank, then press ENTER when you're ready to move on to the next sentence.</strong> <br><br>If you're unsure about your choice, follow your first instinct.<br><br>When you're ready to begin, press the space bar.",,72559,1,html-keyboard-response,
2061,Pilot,,,SP,I,S,1,the shoemakers,P,3,critical,14,0.0-2.0-0.0,['are'],,,"Either I or the shoemakers %is,are,am% watching the movie.",79213,2,cloze,
2061,Pilot,,,PP,the runners,P,3,we,P,1,critical,10,0.0-2.0-0.1,['are'],,,"Either the runners or we %is,are,am% sunbathing on the beach.",94740,3,cloze,
2061,Pilot,,,Snull,Tiffany,S,3,null,null,null,filler,100,0.0-2.0-0.2,['is'],,,"Tiffany %is,are,am% folding napkins for the wedding.",99468,4,cloze,
2061,Pilot,,,PP,the technical writers,P,3,the zombies,P,3,filler,94,0.0-2.0-0.3,['are'],,,"Both the technical writers and the zombies %is,are,am% following a Bob Ross tutorial.",131952,5,cloze,
2061,Pilot,,,Snull,Lily,S,3,null,null,null,filler,118,0.0-2.0-0.4,['is'],,,"Lily %is,are,am% accusing the actor of being a nepo baby.",136244,6,cloze,
2061,Pilot,,,PS,we,P,1,I,S,1,critical,3,0.0-2.0-0.5,['are'],,,"Either we or I %is,are,am% signing up for karaoke.",140956,7,cloze,
2061,Pilot,,,Snull,I ,S,1,null,null,null,filler,70,0.0-2.0-0.6,['am'],,,"I  %is,are,am% working on my third novel.",144820,8,cloze,
2061,Pilot,,,SP,the actor,S,3,we,P,1,critical,7,0.0-2.0-0.7,['are'],,,"Either the actor or we %is,are,am% investing in cryptocurrency.",161696,9,cloze,
2061,Pilot,,,SP,the author,S,3,the tattoo artists,P,3,critical,44,0.0-2.0-0.8,['are'],,,"Either the author or the tattoo artists %is,are,am% drinking copious amounts of lemonade.",187287,10,cloze,
2061,Pilot,,,PS,the professors,P,3,the firefighter,S,3,critical,47,0.0-2.0-0.9,['are'],,,"Either the professors or the firefighter %is,are,am% crying in the club.",195367,11,cloze,
2061,Pilot,,,Snull,Xavier,S,3,null,null,null,filler,101,0.0-2.0-0.10,['is'],,,"Xavier %is,are,am% solving the mystery case.",198299,12,cloze,
2061,Pilot,,,PS,we,P,1,I,S,1,critical,15,0.0-2.0-0.11,['am'],,,"Either we or I %is,are,am% feeling guilty for lying.",204402,13,cloze,
2061,Pilot,,,PP,the archaeologists,P,3,the pharmacists,P,3,filler,98,0.0-2.0-0.12,['are'],,,"Both the archaeologists and the pharmacists %is,are,am% helping a tiger escape the circus.",214834,14,cloze,
2061,Pilot,,,SP,I,S,1,we,P,1,critical,12,0.0-2.0-0.13,['are'],,,"Either I or we %is,are,am% laying the house's foundation.",232970,15,cloze,
2061,Pilot,,,PS,we,P,1,I,S,1,critical,27,0.0-2.0-0.14,['am'],,,"Either we or I %is,are,am% administering the exam.",251810,16,cloze,
2061,Pilot,,,SP,the doctor,S,3,the fishers,P,3,critical,20,0.0-2.0-0.15,['are'],,,"Either the doctor or the fishers %is,are,am% running for public office.",256826,17,cloze,
2061,Pilot,,,PS,the archaeologists,P,3,I,S,1,critical,21,0.0-2.0-0.16,['am'],,,"Either the archaeologists or I %is,are,am% visiting the capital of Lithuania.",265336,18,cloze,
2061,Pilot,,,Snull,I ,S,1,null,null,null,filler,75,0.0-2.0-0.17,['am'],,,"I  %is,are,am% rearranging my bedroom furniture.",267735,19,cloze,
2061,Pilot,,,PS,we,P,1,the rancher,S,3,critical,16,0.0-2.0-0.18,['are'],,,"Either we or the rancher %is,are,am% making a difference.",272984,20,cloze,
2061,Pilot,,,PS,we,P,1,the man,S,3,critical,28,0.0-2.0-0.19,['are'],,,"Either we or the man %is,are,am% starting a business.",276495,21,cloze,
2061,Pilot,,,Snull,I ,S,1,null,null,null,filler,72,0.0-2.0-0.20,['am'],,,"I  %is,are,am% conversing with my mother.",279347,22,cloze,
2061,Pilot,,,PP,the realtors,P,3,we,P,1,critical,58,0.0-2.0-0.21,['are'],,,"Either the realtors or we %is,are,am% running a marathon.",288363,23,cloze,
2061,Pilot,,,SS,I,S,1,the scientist,S,3,critical,1,0.0-2.0-0.22,['are'],,,"Either I or the scientist %is,are,am% exploring the ocean depths.",293979,24,cloze,
2061,Pilot,,,SS,the bus driver,S,3,I,S,1,critical,54,0.0-2.0-0.23,['am'],,,"Either the bus driver or I %is,are,am% welcoming the guests.",298259,25,cloze,
2061,Pilot,,,SS,the landlord,S,3,I,S,1,critical,42,0.0-2.0-0.24,['am'],,,"Either the landlord or I %is,are,am% calling for help.",300260,26,cloze,
2061,Pilot,,,PS,the astrologists,P,3,the skier,S,3,critical,11,0.0-2.0-0.25,['are'],,,"Either the astrologists or the skier %is,are,am% conducting an experiment.",309975,27,cloze,
2061,Pilot,,,SP,the writer,S,3,the detectives,P,3,critical,8,0.0-2.0-0.26,['are'],,,"Either the writer or the detectives %is,are,am% celebrating World Rivers Day.",313032,28,cloze,
2061,Pilot,,,PS,the hitchhikers,P,3,the octopus,S,3,critical,23,0.0-2.0-0.27,['are'],,,"Either the hitchhikers or the octopus %is,are,am% dancing the macarena.",321847,29,cloze,
2061,Pilot,,,Snull,Taylor,S,3,null,null,null,filler,119,0.0-2.0-0.28,['is'],,,"Taylor %is,are,am% shopping online for linen shirts.",325278,30,cloze,
2061,Pilot,,,PP,the butlers,P,3,we,P,1,critical,46,0.0-2.0-0.29,['are'],,,"Either the butlers or we %is,are,am% making a toy at Build-A-Bear.",328648,31,cloze,
2061,Pilot,,,SS,the explorer,S,3,I,S,1,critical,18,0.0-2.0-0.30,['are'],,,"Either the explorer or I %is,are,am% celebrating the team's win.",333999,32,cloze,
2061,Pilot,,,SS,Patrick,S,3,Zara,S,3,filler,82,0.0-2.0-0.31,['are'],,,"Both Patrick and Zara %is,are,am% putting together a heist.",337355,33,cloze,
2061,Pilot,,,SS,Noah,S,3,Mason,S,3,filler,95,0.0-2.0-0.32,['are'],,,"Both Noah and Mason %is,are,am% traveling down Route 66.",341892,34,cloze,
2061,Pilot,,,Snull,I ,S,1,null,null,null,filler,69,0.0-2.0-0.33,['am'],,,"I  %is,are,am% working on my PhD.",343284,35,cloze,
2061,Pilot,,,PP,the performers,P,3,the lifeguards,P,3,filler,85,0.0-2.0-0.34,['are'],,,"Both the performers and the lifeguards %is,are,am% helping remove lice from a child's hair.",347027,36,cloze,
2061,Pilot,,,SS,Xena,S,3,Cora,S,3,filler,93,0.0-2.0-0.35,['are'],,,"Both Xena and Cora %is,are,am% brushing a cat.",349963,37,cloze,
2061,Pilot,,,Snull,Emily,S,3,null,null,null,filler,115,0.0-2.0-0.36,['is'],,,"Emily %is,are,am% working on a new iPad.",351899,38,cloze,
2061,Pilot,,,Snull,Alice,S,3,null,null,null,filler,106,0.0-2.0-0.37,['is'],,,"Alice %is,are,am% planning to move to Kansas.",353531,39,cloze,
2061,Pilot,,,SP,the banker,S,3,we,P,1,critical,31,0.0-2.0-0.38,['are'],,,"Either the banker or we %is,are,am% dancing in Saturday's recital.",358003,40,cloze,
2061,Pilot,,,PS,the zoologists,P,3,I,S,1,critical,33,0.0-2.0-0.39,['am'],,,"Either the zoologists or I %is,are,am% writing a novel.",359924,41,cloze,
2061,Pilot,,,PS,the dog trainers,P,3,the farmer,S,3,critical,35,0.0-2.0-0.40,['are'],,,"Either the dog trainers or the farmer %is,are,am% building homes for the unhoused.",366902,42,cloze,
2061,Pilot,,,Snull,Holly,S,3,null,null,null,filler,110,0.0-2.0-0.41,['is'],,,"Holly %is,are,am% eating without utensils.",368904,43,cloze,
2061,Pilot,,,Snull,I ,S,1,null,null,null,filler,62,0.0-2.0-0.42,['am'],,,"I  %is,are,am% reheating my day-old fries.",370599,44,cloze,
2061,Pilot,,,Snull,Tristan,S,3,null,null,null,filler,109,0.0-2.0-0.43,['is'],,,"Tristan %is,are,am% arranging a bouquet.",372152,45,cloze,
2061,Pilot,,,Snull,I ,S,1,null,null,null,filler,63,0.0-2.0-0.44,['am'],,,"I  %is,are,am% weeding my garden.",373486,46,cloze,
2061,Pilot,,,SP,I,S,1,we,P,1,critical,36,0.0-2.0-0.45,['is'],,,"Either I or we %is,are,am% teaching a class.",383088,47,cloze,
2061,Pilot,,,Snull,Oliver,S,3,null,null,null,filler,116,0.0-2.0-0.46,['is'],,,"Oliver %is,are,am% drinking a Diet Coke in the shower.",385240,48,cloze,
2061,Pilot,,,PS,the zombies,P,3,I,S,1,critical,9,0.0-2.0-0.47,['am'],,,"Either the zombies or I %is,are,am% writing a self-help book.",389031,49,cloze,
2061,Pilot,,,Snull,I ,S,1,null,null,null,filler,67,0.0-2.0-0.48,['am'],,,"I  %is,are,am% wishing on a shooting star.",390760,50,cloze,
2061,Pilot,,,SS,the police officer,S,3,I,S,1,critical,6,0.0-2.0-0.49,['are'],,,"Either the police officer or I %is,are,am% playing the guitar.",393943,51,cloze,
2061,Pilot,,,SS,Hannah,S,3,Yaryn,S,3,filler,92,0.0-2.0-0.50,['are'],,,"Both Hannah and Yaryn %is,are,am% planning a trip to Jupiter.",398015,52,cloze,
2061,Pilot,,,SP,I,S,1,we,P,1,critical,0,0.0-2.0-0.51,['are'],,,"Either I or we %is,are,am% trying to remember the capital of Australia.",402243,53,cloze,
2061,Pilot,,,PP,the cashiers,P,3,we,P,1,critical,22,0.0-2.0-0.52,['are'],,,"Either the cashiers or we %is,are,am% dancing the Hula.",406867,54,cloze,
2061,Pilot,,,PP,we,P,1,the programmers,P,3,critical,5,0.0-2.0-0.53,['are'],,,"Either we or the programmers %is,are,am% moving to Nairobi.",410211,55,cloze,
2061,Pilot,,,Snull,I ,S,1,null,null,null,filler,60,0.0-2.0-0.54,['am'],,,"I  %is,are,am% eating my lunch.",411756,56,cloze,
2061,Pilot,,,PP,the acrobats,P,3,the screenwriters,P,3,filler,99,0.0-2.0-0.55,['are'],,,"Both the acrobats and the screenwriters %is,are,am% seeking external validation.",415500,57,cloze,
2061,Pilot,,,Snull,Thomas,S,3,null,null,null,filler,111,0.0-2.0-0.56,['is'],,,"Thomas %is,are,am% trying to cleanse the negative energy in the house.",416923,58,cloze,
2061,Pilot,,,PS,we,P,1,the dancer,S,3,critical,40,0.0-2.0-0.57,['is'],,,"Either we or the dancer %is,are,am% inspiring others.",422211,59,cloze,
2061,Pilot,,,SP,I,S,1,we,P,1,critical,24,0.0-2.0-0.58,['are'],,,"Either I or we %is,are,am% reading the latest Stephen King novel.",425460,60,cloze,
2061,Pilot,,,PP,the shoppers,P,3,the interlopers,P,3,filler,88,0.0-2.0-0.59,['are'],,,"Both the shoppers and the interlopers %is,are,am% playing Scrabble",430007,61,cloze,
2061,Pilot,,,Snull,I ,S,1,null,null,null,filler,73,0.0-2.0-0.60,['am'],,,"I  %is,are,am% teaching my cat Spanish.",431351,62,cloze,
2061,Pilot,,,PS,the wolves,P,3,I,S,1,critical,45,0.0-2.0-0.61,['are'],,,"Either the wolves or I %is,are,am% working on the puzzle.",439664,63,cloze,
2061,Pilot,,,SP,I,S,1,the sorcerers,P,3,critical,38,0.0-2.0-0.62,['are'],,,"Either I or the sorcerers %is,are,am% fixing the car.",441976,64,cloze,
2061,Pilot,,,PP,the informants,P,3,we,P,1,critical,34,0.0-2.0-0.63,['are'],,,"Either the informants or we %is,are,am% ordering more paella.",448487,65,cloze,
2061,Pilot,,,Snull,I ,S,1,null,null,null,filler,74,0.0-2.0-0.64,['am'],,,"I  %is,are,am% celebrating my sibling's birthday.",451391,66,cloze,
2061,Pilot,,,Snull,I ,S,1,null,null,null,filler,64,0.0-2.0-0.65,['am'],,,"I  %is,are,am% laughing at myself in the mirror.",453087,67,cloze,
2061,Pilot,,,PS,we,P,1,I,S,1,critical,39,0.0-2.0-0.66,['are'],,,"Either we or I %is,are,am% learning a new language.",455268,68,cloze,
2061,Pilot,,,SS,the innkeeper,S,3,I,S,1,critical,30,0.0-2.0-0.67,['are'],,,"Either the innkeeper or I %is,are,am% attending a lecture on Jane Austen.",457389,69,cloze,
2061,Pilot,,,Snull,Madison,S,3,null,null,null,filler,104,0.0-2.0-0.68,['is'],,,"Madison %is,are,am% interviewing people on the street.",458820,70,cloze,
2061,Pilot,,,SS,Rebekah,S,3,Paige,S,3,filler,83,0.0-2.0-0.69,['are'],,,"Both Rebekah and Paige %is,are,am% designing tote bags for the funeral home.",460876,71,cloze,
2061,Pilot,,,PP,the attendants,P,3,the actresses,P,3,filler,84,0.0-2.0-0.70,['are'],,,"Both the attendants and the actresses %is,are,am% purchasing new phones.",463932,72,cloze,
