workerid,proliferate.condition,accuracy,category,cond,conj1,conj1_num,conj2,conj2_num,dataType,internal_node_id,item,response,rt,stimulus,text,time_elapsed,trial_index,trial_type,error
1625,Main,,irb,,,,,,,0.0-0.0,,0,3697,"<p><font size=""3"">We invite you to participate in a research study on language production and comprehension. Your experimenter will ask you to do a linguistic task such as reading sentences or words, naming pictures or describing scenes, making up sentences of your own, or participating in a simple language game. <br><br>There are no risks or benefits of any kind involved in this study. <br><br>You will be paid for your participation at the posted rate.<br><br>If you have read this form and have decided to participate in this experiment, please understand your participation is voluntary and you have the right to withdraw your consent or discontinue participation at anytime without penalty or loss of benefits to which you are otherwise entitled. You have the right to refuse to do particular tasks. Your individual privacy will be maintained in all published and written data resulting from the study. You may print this form for your records.<br><br>CONTACT INFORMATION: If you have any questions, concerns or complaints about this research study, its procedures, risks and benefits, you should contact the Protocol Director Meghan Sumner at (650)-725-9336. If you are not satisfied with how this study is being conducted, or if you have any concerns, complaints, or general questions about the research or your rights as a participant, please contact the Stanford Institutional Review Board (IRB) to speak to someone independent of the research team at (650)-723-2480 or toll free at 1-866-680-2906. You can also write to the Stanford IRB, Stanford University, 3000 El Camino Real, Five Palo Alto Square, 4th Floor, Palo Alto, CA 94306 USA.<br><br>If you agree to participate, please proceed to the study tasks.</font></p>",,3699,0,html-button-response,
1625,Main,,instructions,,,,,,,0.0-1.0,, ,1774,"In this experiment, you will read a series of sentences and will be asked to indicate the word which best completes it.<br><br><strong>Please type the word 'is' or 'are' in the blank.</strong> <br><br>If you're unsure about your choice, follow your first instinct.<br><br>When you're ready to begin, press the space bar.",,5473,1,html-keyboard-response,
1625,Main,,,SS,Hossein,S,Elias,S,Critical,0.0-2.0-0.0,25,['are'],,,"Either Hossein or Elias %is,are% sketching the concept art.",13255,2,cloze,
1625,Main,,,SS,David,S,Joan,S,Critical,0.0-2.0-0.1,6,['are'],,,"Either David or Joan %is,are% fixing the leaking pipe.",15916,3,cloze,
1625,Main,,,SS,Sarah,S,Matt,S,Filler,0.0-2.0-0.2,35,['are'],,,"Both Sarah and Matt %is,are% writing the end-of-year report.",19748,4,cloze,
1625,Main,,,PS,these research assistants,P,Fatima,S,Filler,0.0-2.0-0.3,32,['are'],,,"Both these research assistants and Fatima %is,are% conducting the experiments.",21731,5,cloze,
1625,Main,,,SS,Hanako,S,George,S,Critical,0.0-2.0-0.4,4,['are'],,,"Either Hanako or George %is,are% repairing the truck engine.",23178,6,cloze,
1625,Main,,,P,those editors,P,,,Filler,0.0-2.0-0.5,39,['are'],,,"Those editors %is,are% proofreading the manuscripts.",24774,7,cloze,
1625,Main,,,PS,those designers,P,Brian,S,Filler,0.0-2.0-0.6,34,['are'],,,"Both those designers and Brian %is,are% creating the fashion collection.",26791,8,cloze,
1625,Main,,,S,Alex,S,,,Filler,0.0-2.0-0.7,58,['is'],,,"Alex %is,are% installing the security system.",28633,9,cloze,
1625,Main,,,P,these architects,P,,,Filler,0.0-2.0-0.8,38,['are'],,,"These architects %is,are% designing the building's layout.",31446,10,cloze,
1625,Main,,,S,Joey,S,,,Filler,0.0-2.0-0.9,70,['is'],,,"Joey %is,are% developing the game software.",32948,11,cloze,
1625,Main,,,PP,these fashion designers,P,those tailors,P,Critical,0.0-2.0-0.10,19,['are'],,,"Either these fashion designers or those tailors %is,are% sewing the dresses.",34819,12,cloze,
1625,Main,,,P,those farmers,P,,,Filler,0.0-2.0-0.11,47,['are'],,,"Those farmers %is,are% tending to the crops.",36498,13,cloze,
1625,Main,,,SP,Brian,S,those designers,P,Critical,0.0-2.0-0.12,9,['are'],,,"Either Brian or those designers %is,are% creating the fashion collection.",38878,14,cloze,
1625,Main,,,SP,David,S,those plumbers,P,Filler,0.0-2.0-0.13,31,['are'],,,"Both David and those plumbers %is,are% fixing the leaking pipe.",40423,15,cloze,
1625,Main,,,SS,Krishna,S,Amir,S,Filler,0.0-2.0-0.14,37,['are'],,,"Both Krishna and Amir %is,are% analyzing the market trends.",42365,16,cloze,
1625,Main,,,PP,these professors,P,those students,P,Filler,0.0-2.0-0.15,27,['are'],,,"Both these professors and those students %is,are% drafting the important email.",46863,17,cloze,
1625,Main,,,S,Lydia,S,,,Filler,0.0-2.0-0.16,67,['is'],,,"Lydia %is,are% tailoring the costumes.",48232,18,cloze,
1625,Main,,,P,those lawyers,P,,,Filler,0.0-2.0-0.17,40,['are'],,,"Those lawyers %is,are% handling the legal documents.",50659,19,cloze,
1625,Main,,,P,those tailors,P,,,Filler,0.0-2.0-0.18,44,['are'],,,"Those tailors %is,are% sewing the dresses.",54439,20,cloze,
1625,Main,,,P,those kids,P,,,Filler,0.0-2.0-0.19,43,['are'],,,"Those kids %is,are% building the tree house.",55877,21,cloze,
1625,Main,,,PP,these surgeons,P,those nurses,P,Critical,0.0-2.0-0.20,17,['are'],,,"Either these surgeons or those nurses %is,are% attending to the patients.",57568,22,cloze,
1625,Main,,,SS,Peter,S,Noah,S,Critical,0.0-2.0-0.21,15,['are'],,,"Either Peter or Noah %is,are% handling the legal documents.",60885,23,cloze,
1625,Main,,,PP,those babysitters,P,those parents,P,Critical,0.0-2.0-0.22,24,['are'],,,"Either those babysitters or those parents %is,are% taking care of the babies.",63265,24,cloze,
1625,Main,,,P,those nurses,P,,,Filler,0.0-2.0-0.23,42,['are'],,,"Those nurses %is,are% attending to the patients.",64934,25,cloze,
1625,Main,,,S,Hank,S,,,Filler,0.0-2.0-0.24,73,['is'],,,"Hank %is,are% constructing the playground.",66451,26,cloze,
1625,Main,,,S,Kim,S,,,Filler,0.0-2.0-0.25,60,['is'],,,"Kim %is,are% cataloging the library collection.",68263,27,cloze,
1625,Main,,,S,Bill,S,,,Filler,0.0-2.0-0.26,59,['is'],,,"Bill %is,are% planning the conference.",69617,28,cloze,
1625,Main,,,S,Jimmy,S,,,Filler,0.0-2.0-0.27,61,['is'],,,"Jimmy %is,are% fertilizing the fields.",71078,29,cloze,
1625,Main,,,S,Yuki,S,,,Filler,0.0-2.0-0.28,66,['is'],,,"Yuki %is,are% evaluating the scholarship applications.",72480,30,cloze,
1625,Main,,,PS,those electricians,P,Melissa,S,Filler,0.0-2.0-0.29,33,['are'],,,"Both those electricians and Melissa %is,are% fixing the wiring issues.",73948,31,cloze,
1625,Main,,,SS,Jimmy,S,Carlos,S,Critical,0.0-2.0-0.30,18,['are'],,,"Either Jimmy or Carlos %is,are% building the tree house.",76005,32,cloze,
1625,Main,,,SS,Juan,S,Antonio,S,Filler,0.0-2.0-0.31,36,['are'],,,"Both Juan and Antonio %is,are% making the admission decisions.",99762,33,cloze,
1625,Main,,,S,Andy,S,,,Filler,0.0-2.0-0.32,69,['is'],,,"Andy %is,are% capturing the wildlife in photographs.",104838,34,cloze,
1625,Main,,,S,Thomas,S,,,Filler,0.0-2.0-0.33,63,['is'],,,"Thomas %is,are% training at the sports center.",106217,35,cloze,
1625,Main,,,PP,those administrators,P,these teachers,P,Critical,0.0-2.0-0.34,11,['are'],,,"Either those administrators or these teachers %is,are% making the admission decisions.",107679,36,cloze,
1625,Main,,,SS,Lydia,S,Liam,S,Critical,0.0-2.0-0.35,21,['are'],,,"Either Lydia or Liam %is,are% using the art studio.",108798,37,cloze,
1625,Main,,,S,Maria,S,,,Filler,0.0-2.0-0.36,64,['is'],,,"Maria %is,are% producing the documentary film.",109990,38,cloze,
1625,Main,,,S,Ellen,S,,,Filler,0.0-2.0-0.37,71,['is'],,,"Ellen %is,are% renovating the historic building.",111041,39,cloze,
1625,Main,,,P,those volunteers,P,,,Filler,0.0-2.0-0.38,45,['are'],,,"Those volunteers %is,are% sorting the books.",150024,40,cloze,
1625,Main,,,PP,those librarians,P,those volunteers,P,Critical,0.0-2.0-0.39,20,['are'],,,"Either those librarians or those volunteers %is,are% sorting the books.",151403,41,cloze,
1625,Main,,,PP,these interior designers,P,these architects,P,Critical,0.0-2.0-0.40,13,['are'],,,"Either these interior designers or these architects %is,are% designing the building's layout.",152920,42,cloze,
1625,Main,,,S,Carlos,S,,,Filler,0.0-2.0-0.41,62,['is'],,,"Carlos %is,are% painting the mural.",154746,43,cloze,
1625,Main,,,P,those painters,P,,,Filler,0.0-2.0-0.42,46,['are'],,,"Those painters %is,are% using the art studio.",156373,44,cloze,
1625,Main,,,SS,Alex,S,Noah,S,Critical,0.0-2.0-0.43,16,['are'],,,"Either Alex or Noah %is,are% recording the solar eclipse.",161139,45,cloze,
1625,Main,,,SP,Lisa,S,those children,P,Filler,0.0-2.0-0.44,30,['are'],,,"Both Lisa and those children %is,are% preparing dinner.",165158,46,cloze,
1625,Main,,,PS,those electricians,P,Melissa,S,Critical,0.0-2.0-0.45,8,['are'],,,"Either those electricians or Melissa %is,are% fixing the wiring issues.",166497,47,cloze,
1625,Main,,,PS,those farmers,P,Andy,S,Critical,0.0-2.0-0.46,22,['are'],,,"Either those farmers or Andy %is,are% tending to the crops.",167739,48,cloze,
1625,Main,,,S,Ali,S,,,Filler,0.0-2.0-0.47,72,['is'],,,"Ali %is,are% cooking the festive meal.",169207,49,cloze,
1625,Main,,,PP,those police officers,P,those detectives,P,Filler,0.0-2.0-0.48,28,['are'],,,"Both those police officers and those detectives %is,are% investigating the crime scene.",170820,50,cloze,
1625,Main,,,SP,Hanako,S,those mechanics,P,Filler,0.0-2.0-0.49,29,['are'],,,"Both Hanako and those mechanics %is,are% repairing the truck engine.",173761,51,cloze,
1625,Main,,,S,Noah,S,,,Filler,0.0-2.0-0.50,57,['is'],,,"Noah %is,are% servicing the air conditioning units.",177407,52,cloze,
1625,Main,,,SP,Fatima,S,these research assistants,P,Critical,0.0-2.0-0.51,7,['are'],,,"Either Fatima or these research assistants %is,are% conducting the experiments.",179955,53,cloze,
1625,Main,,,S,Lin,S,,,Filler,0.0-2.0-0.52,51,['is'],,,"Lin %is,are% reviewing the project proposals.",181700,54,cloze,
1625,Main,,,SP,William,S,those students,P,Critical,0.0-2.0-0.53,2,['are'],,,"Either William or those students %is,are% drafting the important email.",185207,55,cloze,
1625,Main,,,S,Liam,S,,,Filler,0.0-2.0-0.54,68,['is'],,,"Liam %is,are% solving the mystery case.",191326,56,cloze,
1625,Main,,,SS,Ellen,S,Ali,S,Critical,0.0-2.0-0.55,23,['are'],,,"Either Ellen or Ali %is,are% working out at the gym.",192851,57,cloze,
1625,Main,,,PS,those boys,P,John,S,Critical,0.0-2.0-0.56,1,['are'],,,"Either those boys or John %is,are% interviewing the movie star.",206694,58,cloze,
1625,Main,,,S,Elias,S,,,Filler,0.0-2.0-0.57,52,['is'],,,"Elias %is,are% leading the scientific research.",208418,59,cloze,
1625,Main,,,SS,Lisa,S,George,S,Critical,0.0-2.0-0.58,5,['are'],,,"Either Lisa or George %is,are% preparing dinner.",209882,60,cloze,
1625,Main,,,S,Mateo,S,,,Filler,0.0-2.0-0.59,50,['is'],,,"Mateo %is,are% organizing the charity event.",211608,61,cloze,
1625,Main,,,P,those parents,P,,,Filler,0.0-2.0-0.60,49,['are'],,,"Those parents %is,are% taking care of the babies.",215931,62,cloze,
1625,Main,,,SS,Sarah,S,Matt,S,Critical,0.0-2.0-0.61,10,['are'],,,"Either Sarah or Matt %is,are% writing the end-of-year report.",217780,63,cloze,
1625,Main,,,PP,these girls,P,those boys,P,Filler,0.0-2.0-0.62,26,['are'],,,"Both these girls and those boys %is,are% interviewing the movie star.",219412,64,cloze,
1625,Main,,,P,those athletes,P,,,Filler,0.0-2.0-0.63,48,['are'],,,"Those athletes %is,are% working out at the gym.",220836,65,cloze,
1625,Main,,,S,Hasan,S,,,Filler,0.0-2.0-0.64,65,['is'],,,"Hasan %is,are% decorating the gallery.",222345,66,cloze,
1625,Main,,,SP,Krishna,S,those statisticians,P,Critical,0.0-2.0-0.65,12,['are'],,,"Either Krishna or those statisticians %is,are% analyzing the market trends.",226338,67,cloze,
1625,Main,,,S,Peter,S,,,Filler,0.0-2.0-0.66,56,['is'],,,"Peter %is,are% composing the annual report.",233212,68,cloze,
1625,Main,,,PP,those secretaries,P,those editors,P,Critical,0.0-2.0-0.67,14,['are'],,,"Either those secretaries or those editors %is,are% proofreading the manuscripts.",236873,69,cloze,
1625,Main,,,P,these photographers,P,,,Filler,0.0-2.0-0.68,41,['are'],,,"These photographers %is,are% recording the solar eclipse.",239149,70,cloze,
1625,Main,,,S,Pedro,S,,,Filler,0.0-2.0-0.69,53,['is'],,,"Pedro %is,are% editing the academic journal.",240493,71,cloze,
1625,Main,,,PP,the team of police officers,P,those detectives,P,Critical,0.0-2.0-0.70,3,['are'],,,"Either the team of police officers or those detectives %is,are% investigating the crime scene.",251956,72,cloze,
1625,Main,,,S,Zeynab,S,,,Filler,0.0-2.0-0.71,54,['is'],,,"Zeynab %is,are% caring for the garden.",256414,73,cloze,
1625,Main,,,S,Emma,S,,,Filler,0.0-2.0-0.72,55,['is'],,,"Emma %is,are% resolving the network issues",259094,74,cloze,
1625,Main,[],demographics,,,,,,,0.0-3.0,,"{'age': '32', 'P0_Q0': None, 'enjoy': 'Worse than the average experiment', 'gender': 'Male', 'correct': 'Yes', 'payment': 'The payment was fair', 'comments': '', 'language': 'Yes', 'education': 'Hold a higher degree', 'other-language': ''}",36556,,,295720,75,survey,
1625,Main,,thanks,,,,,,,0.0-4.0,,0,1265,Thank you for your time! Please click 'Continue' and then wait a moment until you're directed back to Prolific.<br><br>,,296988,76,html-button-response,
1651,Main,,irb,,,,,,,0.0-0.0,,0,5361,"<p><font size=""3"">We invite you to participate in a research study on language production and comprehension. Your experimenter will ask you to do a linguistic task such as reading sentences or words, naming pictures or describing scenes, making up sentences of your own, or participating in a simple language game. <br><br>There are no risks or benefits of any kind involved in this study. <br><br>You will be paid for your participation at the posted rate.<br><br>If you have read this form and have decided to participate in this experiment, please understand your participation is voluntary and you have the right to withdraw your consent or discontinue participation at anytime without penalty or loss of benefits to which you are otherwise entitled. You have the right to refuse to do particular tasks. Your individual privacy will be maintained in all published and written data resulting from the study. You may print this form for your records.<br><br>CONTACT INFORMATION: If you have any questions, concerns or complaints about this research study, its procedures, risks and benefits, you should contact the Protocol Director Meghan Sumner at (650)-725-9336. If you are not satisfied with how this study is being conducted, or if you have any concerns, complaints, or general questions about the research or your rights as a participant, please contact the Stanford Institutional Review Board (IRB) to speak to someone independent of the research team at (650)-723-2480 or toll free at 1-866-680-2906. You can also write to the Stanford IRB, Stanford University, 3000 El Camino Real, Five Palo Alto Square, 4th Floor, Palo Alto, CA 94306 USA.<br><br>If you agree to participate, please proceed to the study tasks.</font></p>",,5369,0,html-button-response,
1651,Main,,instructions,,,,,,,0.0-1.0,, ,8365,"In this experiment, you will read a series of sentences and will be asked to indicate the word which best completes it.<br><br><strong>Please type the word 'is' or 'are' in the blank.</strong> <br><br>If you're unsure about your choice, follow your first instinct.<br><br>When you're ready to begin, press the space bar.",,13735,1,html-keyboard-response,
1651,Main,,,PS,those electricians,P,Melissa,S,Filler,0.0-2.0-0.0,33,['are'],,,"Both those electricians and Melissa %is,are% fixing the wiring issues.",19139,2,cloze,
1651,Main,,,PS,those plumbers,P,David,S,Critical,0.0-2.0-0.1,6,['is'],,,"Either those plumbers or David %is,are% fixing the leaking pipe.",22981,3,cloze,
1651,Main,,,PP,these surgeons,P,those nurses,P,Critical,0.0-2.0-0.2,17,['are'],,,"Either these surgeons or those nurses %is,are% attending to the patients.",25618,4,cloze,
1651,Main,,,S,Ali,S,,,Filler,0.0-2.0-0.3,72,['is'],,,"Ali %is,are% cooking the festive meal.",28479,5,cloze,
1651,Main,,,PP,these girls,P,those boys,P,Filler,0.0-2.0-0.4,26,['are'],,,"Both these girls and those boys %is,are% interviewing the movie star.",31247,6,cloze,
1651,Main,,,S,Elias,S,,,Filler,0.0-2.0-0.5,52,['is'],,,"Elias %is,are% leading the scientific research.",34264,7,cloze,
1651,Main,,,PP,those sculptors,P,those painters,P,Critical,0.0-2.0-0.6,21,['are'],,,"Either those sculptors or those painters %is,are% using the art studio.",37532,8,cloze,
1651,Main,,,S,Lydia,S,,,Filler,0.0-2.0-0.7,67,['is'],,,"Lydia %is,are% tailoring the costumes.",39879,9,cloze,
1651,Main,,,P,those nurses,P,,,Filler,0.0-2.0-0.8,42,['are'],,,"Those nurses %is,are% attending to the patients.",41442,10,cloze,
1651,Main,,,P,those painters,P,,,Filler,0.0-2.0-0.9,46,['are'],,,"Those painters %is,are% using the art studio.",43257,11,cloze,
1651,Main,,,PS,those students,P,William,S,Critical,0.0-2.0-0.10,2,['is'],,,"Either those students or William %is,are% drafting the important email.",46461,12,cloze,
1651,Main,,,P,those athletes,P,,,Filler,0.0-2.0-0.11,48,['are'],,,"Those athletes %is,are% working out at the gym.",51089,13,cloze,
1651,Main,,,S,Mateo,S,,,Filler,0.0-2.0-0.12,50,['is'],,,"Mateo %is,are% organizing the charity event.",53524,14,cloze,
1651,Main,,,S,Yuki,S,,,Filler,0.0-2.0-0.13,66,['is'],,,"Yuki %is,are% evaluating the scholarship applications.",55607,15,cloze,
1651,Main,,,SS,Melissa,S,Patrick,S,Critical,0.0-2.0-0.14,8,['is'],,,"Either Melissa or Patrick %is,are% fixing the wiring issues.",61981,16,cloze,
1651,Main,,,P,these photographers,P,,,Filler,0.0-2.0-0.15,41,['are'],,,"These photographers %is,are% recording the solar eclipse.",63573,17,cloze,
1651,Main,,,SP,Lisa,S,those children,P,Filler,0.0-2.0-0.16,30,['are'],,,"Both Lisa and those children %is,are% preparing dinner.",66056,18,cloze,
1651,Main,,,S,Noah,S,,,Filler,0.0-2.0-0.17,57,['is'],,,"Noah %is,are% servicing the air conditioning units.",68898,19,cloze,
1651,Main,,,PP,these stylists,P,those designers,P,Critical,0.0-2.0-0.18,9,['are'],,,"Either these stylists or those designers %is,are% creating the fashion collection.",72799,20,cloze,
1651,Main,,,P,those kids,P,,,Filler,0.0-2.0-0.19,43,['are'],,,"Those kids %is,are% building the tree house.",74419,21,cloze,
1651,Main,,,PS,those mechanics,P,Hanako,S,Critical,0.0-2.0-0.20,4,['are'],,,"Either those mechanics or Hanako %is,are% repairing the truck engine.",82071,22,cloze,
1651,Main,,,PP,those secretaries,P,those editors,P,Critical,0.0-2.0-0.21,14,['are'],,,"Either those secretaries or those editors %is,are% proofreading the manuscripts.",84358,23,cloze,
1651,Main,,,SP,Lisa,S,those children,P,Critical,0.0-2.0-0.22,5,['are'],,,"Either Lisa or those children %is,are% preparing dinner.",87832,24,cloze,
1651,Main,,,S,Ellen,S,,,Filler,0.0-2.0-0.23,71,['is'],,,"Ellen %is,are% renovating the historic building.",90435,25,cloze,
1651,Main,,,S,Liam,S,,,Filler,0.0-2.0-0.24,68,['is'],,,"Liam %is,are% solving the mystery case.",93438,26,cloze,
1651,Main,,,S,Joey,S,,,Filler,0.0-2.0-0.25,70,['is'],,,"Joey %is,are% developing the game software.",95426,27,cloze,
1651,Main,,,SS,Krishna,S,Amir,S,Filler,0.0-2.0-0.26,37,['are'],,,"Both Krishna and Amir %is,are% analyzing the market trends.",97637,28,cloze,
1651,Main,,,SS,Juan,S,Antonio,S,Filler,0.0-2.0-0.27,36,['are'],,,"Both Juan and Antonio %is,are% making the admission decisions.",99712,29,cloze,
1651,Main,,,SP,Hank,S,those parents,P,Critical,0.0-2.0-0.28,24,['are'],,,"Either Hank or those parents %is,are% taking care of the babies.",102236,30,cloze,
1651,Main,,,P,those tailors,P,,,Filler,0.0-2.0-0.29,44,['are'],,,"Those tailors %is,are% sewing the dresses.",103825,31,cloze,
1651,Main,,,SP,Peter,S,those lawyers,P,Critical,0.0-2.0-0.30,15,['are'],,,"Either Peter or those lawyers %is,are% handling the legal documents.",105865,32,cloze,
1651,Main,,,SS,Hasan,S,Yuki,S,Critical,0.0-2.0-0.31,20,['are'],,,"Either Hasan or Yuki %is,are% sorting the books.",111440,33,cloze,
1651,Main,,,P,those volunteers,P,,,Filler,0.0-2.0-0.32,45,['are'],,,"Those volunteers %is,are% sorting the books.",113405,34,cloze,
1651,Main,,,S,Pedro,S,,,Filler,0.0-2.0-0.33,53,['is'],,,"Pedro %is,are% editing the academic journal.",115805,35,cloze,
1651,Main,,,PS,these architects,P,Mateo,S,Critical,0.0-2.0-0.34,13,['are'],,,"Either these architects or Mateo %is,are% designing the building's layout.",120691,36,cloze,
1651,Main,,,SP,Hanako,S,those mechanics,P,Filler,0.0-2.0-0.35,29,['are'],,,"Both Hanako and those mechanics %is,are% repairing the truck engine.",123094,37,cloze,
1651,Main,,,S,Bill,S,,,Filler,0.0-2.0-0.36,59,['is'],,,"Bill %is,are% planning the conference.",124973,38,cloze,
1651,Main,,,PS,those detectives,P,Harry,S,Critical,0.0-2.0-0.37,3,['are'],,,"Either those detectives or Harry %is,are% investigating the crime scene.",128955,39,cloze,
1651,Main,,,P,those parents,P,,,Filler,0.0-2.0-0.38,49,['are'],,,"Those parents %is,are% taking care of the babies.",130372,40,cloze,
1651,Main,,,PS,those designers,P,Brian,S,Filler,0.0-2.0-0.39,34,['are'],,,"Both those designers and Brian %is,are% creating the fashion collection.",132826,41,cloze,
1651,Main,,,S,Jimmy,S,,,Filler,0.0-2.0-0.40,61,['is'],,,"Jimmy %is,are% fertilizing the fields.",134555,42,cloze,
1651,Main,,,SP,Krishna,S,those statisticians,P,Critical,0.0-2.0-0.41,12,['are'],,,"Either Krishna or those statisticians %is,are% analyzing the market trends.",137141,43,cloze,
1651,Main,,,PP,those police officers,P,those detectives,P,Filler,0.0-2.0-0.42,28,['are'],,,"Both those police officers and those detectives %is,are% investigating the crime scene.",140354,44,cloze,
1651,Main,,,SS,Sarah,S,Matt,S,Filler,0.0-2.0-0.43,35,['are'],,,"Both Sarah and Matt %is,are% writing the end-of-year report.",142161,45,cloze,
1651,Main,,,PS,these research assistants,P,Fatima,S,Filler,0.0-2.0-0.44,32,['are'],,,"Both these research assistants and Fatima %is,are% conducting the experiments.",144402,46,cloze,
1651,Main,,,S,Hank,S,,,Filler,0.0-2.0-0.45,73,['is'],,,"Hank %is,are% constructing the playground.",146348,47,cloze,
1651,Main,,,SS,John,S,Mary,S,Critical,0.0-2.0-0.46,1,['is'],,,"Either John or Mary %is,are% interviewing the movie star.",150123,48,cloze,
1651,Main,,,PS,these teachers,P,Juan,S,Critical,0.0-2.0-0.47,11,['are'],,,"Either these teachers or Juan %is,are% making the admission decisions.",153053,49,cloze,
1651,Main,,,SS,Alex,S,Noah,S,Critical,0.0-2.0-0.48,16,['is'],,,"Either Alex or Noah %is,are% recording the solar eclipse.",155624,50,cloze,
1651,Main,,,P,those farmers,P,,,Filler,0.0-2.0-0.49,47,['are'],,,"Those farmers %is,are% tending to the crops.",157704,51,cloze,
1651,Main,,,PS,those tailors,P,Thomas,S,Critical,0.0-2.0-0.50,19,['are'],,,"Either those tailors or Thomas %is,are% sewing the dresses.",160196,52,cloze,
1651,Main,,,PS,those athletes,P,Ellen,S,Critical,0.0-2.0-0.51,23,['are'],,,"Either those athletes or Ellen %is,are% working out at the gym.",162627,53,cloze,
1651,Main,,,S,Alex,S,,,Filler,0.0-2.0-0.52,58,['is'],,,"Alex %is,are% installing the security system.",164643,54,cloze,
1651,Main,,,PS,those kids,P,Jimmy,S,Critical,0.0-2.0-0.53,18,['are'],,,"Either those kids or Jimmy %is,are% building the tree house.",168984,55,cloze,
1651,Main,,,S,Carlos,S,,,Filler,0.0-2.0-0.54,62,['is'],,,"Carlos %is,are% painting the mural.",171346,56,cloze,
1651,Main,,,SP,David,S,those plumbers,P,Filler,0.0-2.0-0.55,31,['are'],,,"Both David and those plumbers %is,are% fixing the leaking pipe.",175998,57,cloze,
1651,Main,,,S,Kim,S,,,Filler,0.0-2.0-0.56,60,['is'],,,"Kim %is,are% cataloging the library collection.",178206,58,cloze,
1651,Main,,,SP,Sarah,S,those staff members,P,Critical,0.0-2.0-0.57,10,['are'],,,"Either Sarah or those staff members %is,are% writing the end-of-year report.",180423,59,cloze,
1651,Main,,,SS,Fatima,S,Lucas,S,Critical,0.0-2.0-0.58,7,['is'],,,"Either Fatima or Lucas %is,are% conducting the experiments.",183667,60,cloze,
1651,Main,,,S,Emma,S,,,Filler,0.0-2.0-0.59,55,['is'],,,"Emma %is,are% resolving the network issues",187558,61,cloze,
1651,Main,,,S,Hasan,S,,,Filler,0.0-2.0-0.60,65,['is'],,,"Hasan %is,are% decorating the gallery.",189433,62,cloze,
1651,Main,,,SS,Andy,S,Joey,S,Critical,0.0-2.0-0.61,22,['is'],,,"Either Andy or Joey %is,are% tending to the crops.",193484,63,cloze,
1651,Main,,,P,those lawyers,P,,,Filler,0.0-2.0-0.62,40,['are'],,,"Those lawyers %is,are% handling the legal documents.",195887,64,cloze,
1651,Main,,,P,these architects,P,,,Filler,0.0-2.0-0.63,38,['are'],,,"These architects %is,are% designing the building's layout.",198330,65,cloze,
1651,Main,,,SP,Hossein,S,those illustrators,P,Critical,0.0-2.0-0.64,25,['are'],,,"Either Hossein or those illustrators %is,are% sketching the concept art.",200448,66,cloze,
1651,Main,,,S,Lin,S,,,Filler,0.0-2.0-0.65,51,['is'],,,"Lin %is,are% reviewing the project proposals.",202326,67,cloze,
1651,Main,,,S,Maria,S,,,Filler,0.0-2.0-0.66,64,['is'],,,"Maria %is,are% producing the documentary film.",204191,68,cloze,
1651,Main,,,P,those editors,P,,,Filler,0.0-2.0-0.67,39,['are'],,,"Those editors %is,are% proofreading the manuscripts.",205976,69,cloze,
1651,Main,,,PP,these professors,P,those students,P,Filler,0.0-2.0-0.68,27,['are'],,,"Both these professors and those students %is,are% drafting the important email.",208861,70,cloze,
1651,Main,,,S,Zeynab,S,,,Filler,0.0-2.0-0.69,54,['is'],,,"Zeynab %is,are% caring for the garden.",210759,71,cloze,
1651,Main,,,S,Peter,S,,,Filler,0.0-2.0-0.70,56,['is'],,,"Peter %is,are% composing the annual report.",212408,72,cloze,
1651,Main,,,S,Thomas,S,,,Filler,0.0-2.0-0.71,63,['is'],,,"Thomas %is,are% training at the sports center.",214079,73,cloze,
1651,Main,,,S,Andy,S,,,Filler,0.0-2.0-0.72,69,['is'],,,"Andy %is,are% capturing the wildlife in photographs.",215600,74,cloze,
1651,Main,[],demographics,,,,,,,0.0-3.0,,"{'age': '25', 'P0_Q0': None, 'enjoy': 'Better than the average experiment', 'gender': 'Male', 'correct': 'Yes', 'payment': 'The payment was fair', 'comments': '', 'language': 'Yes', 'education': 'Some college', 'other-language': ''}",20469,,,236125,75,survey,
1651,Main,,thanks,,,,,,,0.0-4.0,,0,1117,Thank you for your time! Please click 'Continue' and then wait a moment until you're directed back to Prolific.<br><br>,,237244,76,html-button-response,
1672,Main,,irb,,,,,,,0.0-0.0,,0,18996,"<p><font size=""3"">We invite you to participate in a research study on language production and comprehension. Your experimenter will ask you to do a linguistic task such as reading sentences or words, naming pictures or describing scenes, making up sentences of your own, or participating in a simple language game. <br><br>There are no risks or benefits of any kind involved in this study. <br><br>You will be paid for your participation at the posted rate.<br><br>If you have read this form and have decided to participate in this experiment, please understand your participation is voluntary and you have the right to withdraw your consent or discontinue participation at anytime without penalty or loss of benefits to which you are otherwise entitled. You have the right to refuse to do particular tasks. Your individual privacy will be maintained in all published and written data resulting from the study. You may print this form for your records.<br><br>CONTACT INFORMATION: If you have any questions, concerns or complaints about this research study, its procedures, risks and benefits, you should contact the Protocol Director Meghan Sumner at (650)-725-9336. If you are not satisfied with how this study is being conducted, or if you have any concerns, complaints, or general questions about the research or your rights as a participant, please contact the Stanford Institutional Review Board (IRB) to speak to someone independent of the research team at (650)-723-2480 or toll free at 1-866-680-2906. You can also write to the Stanford IRB, Stanford University, 3000 El Camino Real, Five Palo Alto Square, 4th Floor, Palo Alto, CA 94306 USA.<br><br>If you agree to participate, please proceed to the study tasks.</font></p>",,19000,0,html-button-response,
1672,Main,,instructions,,,,,,,0.0-1.0,, ,17298,"In this experiment, you will read a series of sentences and will be asked to indicate the word which best completes it.<br><br><strong>Please type the word 'is' or 'are' in the blank.</strong> <br><br>If you're unsure about your choice, follow your first instinct.<br><br>When you're ready to begin, press the space bar.",,36299,1,html-keyboard-response,
1672,Main,,,S,Lin,S,,,Filler,0.0-2.0-0.0,51,['is'],,,"Lin %is,are% reviewing the project proposals.",42214,2,cloze,
1672,Main,,,SS,Hanako,S,George,S,Critical,0.0-2.0-0.1,4,['is'],,,"Either Hanako or George %is,are% repairing the truck engine.",55561,3,cloze,
1672,Main,,,P,these architects,P,,,Filler,0.0-2.0-0.2,38,['are'],,,"These architects %is,are% designing the building's layout.",58572,4,cloze,
1672,Main,,,P,those tailors,P,,,Filler,0.0-2.0-0.3,44,['are'],,,"Those tailors %is,are% sewing the dresses.",64337,5,cloze,
1672,Main,,,PP,these girls,P,those boys,P,Filler,0.0-2.0-0.4,26,['are'],,,"Both these girls and those boys %is,are% interviewing the movie star.",70676,6,cloze,
1672,Main,,,SP,John,S,those boys,P,Critical,0.0-2.0-0.5,1,['are'],,,"Either John or those boys %is,are% interviewing the movie star.",75804,7,cloze,
1672,Main,,,S,Zeynab,S,,,Filler,0.0-2.0-0.6,54,['is'],,,"Zeynab %is,are% caring for the garden.",78769,8,cloze,
1672,Main,,,SP,Hasan,S,those volunteers,P,Critical,0.0-2.0-0.7,20,['are'],,,"Either Hasan or those volunteers %is,are% sorting the books.",82996,9,cloze,
1672,Main,,,P,those editors,P,,,Filler,0.0-2.0-0.8,39,['are'],,,"Those editors %is,are% proofreading the manuscripts.",85652,10,cloze,
1672,Main,,,SS,Sarah,S,Matt,S,Filler,0.0-2.0-0.9,35,['are'],,,"Both Sarah and Matt %is,are% writing the end-of-year report.",90441,11,cloze,
1672,Main,,,S,Maria,S,,,Filler,0.0-2.0-0.10,64,['is'],,,"Maria %is,are% producing the documentary film.",94015,12,cloze,
1672,Main,,,PP,these stylists,P,those designers,P,Critical,0.0-2.0-0.11,9,['are'],,,"Either these stylists or those designers %is,are% creating the fashion collection.",97379,13,cloze,
1672,Main,,,S,Yuki,S,,,Filler,0.0-2.0-0.12,66,['is'],,,"Yuki %is,are% evaluating the scholarship applications.",100652,14,cloze,
1672,Main,,,SS,Hank,S,Pedro,S,Critical,0.0-2.0-0.13,24,['are'],,,"Either Hank or Pedro %is,are% taking care of the babies.",106881,15,cloze,
1672,Main,,,S,Liam,S,,,Filler,0.0-2.0-0.14,68,['is'],,,"Liam %is,are% solving the mystery case.",109669,16,cloze,
1672,Main,,,P,these photographers,P,,,Filler,0.0-2.0-0.15,41,['are'],,,"These photographers %is,are% recording the solar eclipse.",112333,17,cloze,
1672,Main,,,PP,those economists,P,those statisticians,P,Critical,0.0-2.0-0.16,12,['are'],,,"Either those economists or those statisticians %is,are% analyzing the market trends.",116351,18,cloze,
1672,Main,,,SP,Lisa,S,those children,P,Critical,0.0-2.0-0.17,5,['are'],,,"Either Lisa or those children %is,are% preparing dinner.",119801,19,cloze,
1672,Main,,,PS,those kids,P,Jimmy,S,Critical,0.0-2.0-0.18,18,['are'],,,"Either those kids or Jimmy %is,are% building the tree house.",122503,20,cloze,
1672,Main,,,PP,these housekeepers,P,those plumbers,P,Critical,0.0-2.0-0.19,6,['are'],,,"Either these housekeepers or those plumbers %is,are% fixing the leaking pipe.",125199,21,cloze,
1672,Main,,,PP,those police officers,P,those detectives,P,Filler,0.0-2.0-0.20,28,['are'],,,"Both those police officers and those detectives %is,are% investigating the crime scene.",129395,22,cloze,
1672,Main,,,S,Mateo,S,,,Filler,0.0-2.0-0.21,50,['is'],,,"Mateo %is,are% organizing the charity event.",132138,23,cloze,
1672,Main,,,S,Carlos,S,,,Filler,0.0-2.0-0.22,62,['is'],,,"Carlos %is,are% painting the mural.",134855,24,cloze,
1672,Main,,,PP,these professors,P,those students,P,Filler,0.0-2.0-0.23,27,['are'],,,"Both these professors and those students %is,are% drafting the important email.",137049,25,cloze,
1672,Main,,,S,Elias,S,,,Filler,0.0-2.0-0.24,52,['is'],,,"Elias %is,are% leading the scientific research.",139781,26,cloze,
1672,Main,,,PS,those designers,P,Brian,S,Filler,0.0-2.0-0.25,34,['are'],,,"Both those designers and Brian %is,are% creating the fashion collection.",142562,27,cloze,
1672,Main,,,PS,those farmers,P,Andy,S,Critical,0.0-2.0-0.26,22,['are'],,,"Either those farmers or Andy %is,are% tending to the crops.",154389,28,cloze,
1672,Main,,,S,Pedro,S,,,Filler,0.0-2.0-0.27,53,['is'],,,"Pedro %is,are% editing the academic journal.",157299,29,cloze,
1672,Main,,,S,Bill,S,,,Filler,0.0-2.0-0.28,59,['is'],,,"Bill %is,are% planning the conference.",160157,30,cloze,
1672,Main,,,S,Lydia,S,,,Filler,0.0-2.0-0.29,67,['is'],,,"Lydia %is,are% tailoring the costumes.",162613,31,cloze,
1672,Main,,,S,Thomas,S,,,Filler,0.0-2.0-0.30,63,['is'],,,"Thomas %is,are% training at the sports center.",165077,32,cloze,
1672,Main,,,SS,Bill,S,Kim,S,Critical,0.0-2.0-0.31,17,['are'],,,"Either Bill or Kim %is,are% attending to the patients.",167295,33,cloze,
1672,Main,,,S,Peter,S,,,Filler,0.0-2.0-0.32,56,['is'],,,"Peter %is,are% composing the annual report.",169975,34,cloze,
1672,Main,,,PS,these architects,P,Mateo,S,Critical,0.0-2.0-0.33,13,['are'],,,"Either these architects or Mateo %is,are% designing the building's layout.",174079,35,cloze,
1672,Main,,,PS,these research assistants,P,Fatima,S,Filler,0.0-2.0-0.34,32,['are'],,,"Both these research assistants and Fatima %is,are% conducting the experiments.",177075,36,cloze,
1672,Main,,,S,Alex,S,,,Filler,0.0-2.0-0.35,58,['is'],,,"Alex %is,are% installing the security system.",179590,37,cloze,
1672,Main,,,SS,Harry,S,Ahmad,S,Critical,0.0-2.0-0.36,3,['are'],,,"Either Harry or Ahmad %is,are% investigating the crime scene.",181609,38,cloze,
1672,Main,,,SS,Alex,S,Noah,S,Critical,0.0-2.0-0.37,16,['are'],,,"Either Alex or Noah %is,are% recording the solar eclipse.",184405,39,cloze,
1672,Main,,,SS,Hossein,S,Elias,S,Critical,0.0-2.0-0.38,25,['are'],,,"Either Hossein or Elias %is,are% sketching the concept art.",186530,40,cloze,
1672,Main,,,S,Andy,S,,,Filler,0.0-2.0-0.39,69,['is'],,,"Andy %is,are% capturing the wildlife in photographs.",189501,41,cloze,
1672,Main,,,SP,Hanako,S,those mechanics,P,Filler,0.0-2.0-0.40,29,['are'],,,"Both Hanako and those mechanics %is,are% repairing the truck engine.",191781,42,cloze,
1672,Main,,,S,Noah,S,,,Filler,0.0-2.0-0.41,57,['is'],,,"Noah %is,are% servicing the air conditioning units.",194414,43,cloze,
1672,Main,,,S,Hank,S,,,Filler,0.0-2.0-0.42,73,['is'],,,"Hank %is,are% constructing the playground.",197018,44,cloze,
1672,Main,,,P,those parents,P,,,Filler,0.0-2.0-0.43,49,['are'],,,"Those parents %is,are% taking care of the babies.",199472,45,cloze,
1672,Main,,,PS,these research assistants,P,Fatima,S,Critical,0.0-2.0-0.44,7,['are'],,,"Either these research assistants or Fatima %is,are% conducting the experiments.",202668,46,cloze,
1672,Main,,,S,Kim,S,,,Filler,0.0-2.0-0.45,60,['is'],,,"Kim %is,are% cataloging the library collection.",205153,47,cloze,
1672,Main,,,S,Jimmy,S,,,Filler,0.0-2.0-0.46,61,['is'],,,"Jimmy %is,are% fertilizing the fields.",207896,48,cloze,
1672,Main,,,SS,Juan,S,Antonio,S,Critical,0.0-2.0-0.47,11,['are'],,,"Either Juan or Antonio %is,are% making the admission decisions.",209598,49,cloze,
1672,Main,,,PS,those electricians,P,Melissa,S,Filler,0.0-2.0-0.48,33,['are'],,,"Both those electricians and Melissa %is,are% fixing the wiring issues.",211790,50,cloze,
1672,Main,,,P,those kids,P,,,Filler,0.0-2.0-0.49,43,['are'],,,"Those kids %is,are% building the tree house.",214794,51,cloze,
1672,Main,,,SS,Krishna,S,Amir,S,Filler,0.0-2.0-0.50,37,['are'],,,"Both Krishna and Amir %is,are% analyzing the market trends.",217333,52,cloze,
1672,Main,,,P,those nurses,P,,,Filler,0.0-2.0-0.51,42,['are'],,,"Those nurses %is,are% attending to the patients.",219403,53,cloze,
1672,Main,,,P,those painters,P,,,Filler,0.0-2.0-0.52,46,['are'],,,"Those painters %is,are% using the art studio.",221690,54,cloze,
1672,Main,,,PP,these paralegals,P,those lawyers,P,Critical,0.0-2.0-0.53,15,['are'],,,"Either these paralegals or those lawyers %is,are% handling the legal documents.",224662,55,cloze,
1672,Main,,,P,those lawyers,P,,,Filler,0.0-2.0-0.54,40,['are'],,,"Those lawyers %is,are% handling the legal documents.",227426,56,cloze,
1672,Main,,,S,Ellen,S,,,Filler,0.0-2.0-0.55,71,['is'],,,"Ellen %is,are% renovating the historic building.",230190,57,cloze,
1672,Main,,,PP,those secretaries,P,those editors,P,Critical,0.0-2.0-0.56,14,['are'],,,"Either those secretaries or those editors %is,are% proofreading the manuscripts.",234116,58,cloze,
1672,Main,,,SP,William,S,those students,P,Critical,0.0-2.0-0.57,2,['are'],,,"Either William or those students %is,are% drafting the important email.",236556,59,cloze,
1672,Main,,,SP,Sarah,S,those staff members,P,Critical,0.0-2.0-0.58,10,['are'],,,"Either Sarah or those staff members %is,are% writing the end-of-year report.",244740,60,cloze,
1672,Main,,,PP,these fashion designers,P,those tailors,P,Critical,0.0-2.0-0.59,19,['are'],,,"Either these fashion designers or those tailors %is,are% sewing the dresses.",248136,61,cloze,
1672,Main,,,S,Ali,S,,,Filler,0.0-2.0-0.60,72,['is'],,,"Ali %is,are% cooking the festive meal.",250968,62,cloze,
1672,Main,,,SS,Juan,S,Antonio,S,Filler,0.0-2.0-0.61,36,['are'],,,"Both Juan and Antonio %is,are% making the admission decisions.",257612,63,cloze,
1672,Main,,,P,those volunteers,P,,,Filler,0.0-2.0-0.62,45,['are'],,,"Those volunteers %is,are% sorting the books.",259876,64,cloze,
1672,Main,,,P,those athletes,P,,,Filler,0.0-2.0-0.63,48,['are'],,,"Those athletes %is,are% working out at the gym.",261608,65,cloze,
1672,Main,,,S,Emma,S,,,Filler,0.0-2.0-0.64,55,['is'],,,"Emma %is,are% resolving the network issues",263972,66,cloze,
1672,Main,,,SP,Lisa,S,those children,P,Filler,0.0-2.0-0.65,30,['are'],,,"Both Lisa and those children %is,are% preparing dinner.",266342,67,cloze,
1672,Main,,,SP,Ellen,S,those athletes,P,Critical,0.0-2.0-0.66,23,['are'],,,"Either Ellen or those athletes %is,are% working out at the gym.",269214,68,cloze,
1672,Main,,,S,Hasan,S,,,Filler,0.0-2.0-0.67,65,['is'],,,"Hasan %is,are% decorating the gallery.",271722,69,cloze,
1672,Main,,,P,those farmers,P,,,Filler,0.0-2.0-0.68,47,['are'],,,"Those farmers %is,are% tending to the crops.",273424,70,cloze,
1672,Main,,,SP,David,S,those plumbers,P,Filler,0.0-2.0-0.69,31,['are'],,,"Both David and those plumbers %is,are% fixing the leaking pipe.",275618,71,cloze,
1672,Main,,,S,Joey,S,,,Filler,0.0-2.0-0.70,70,['is'],,,"Joey %is,are% developing the game software.",278088,72,cloze,
1672,Main,,,SS,Melissa,S,Patrick,S,Critical,0.0-2.0-0.71,8,['are'],,,"Either Melissa or Patrick %is,are% fixing the wiring issues.",281752,73,cloze,
1672,Main,,,PP,those sculptors,P,those painters,P,Critical,0.0-2.0-0.72,21,['are'],,,"Either those sculptors or those painters %is,are% using the art studio.",284270,74,cloze,
1672,Main,[],demographics,,,,,,,0.0-3.0,,"{'age': '33', 'P0_Q0': None, 'enjoy': 'An average experiment', 'gender': 'Female', 'correct': 'Yes', 'payment': 'The payment was fair', 'comments': '', 'language': 'Yes', 'education': 'Graduated college', 'other-language': ''}",33334,,,317640,75,survey,
1672,Main,,thanks,,,,,,,0.0-4.0,,0,1589,Thank you for your time! Please click 'Continue' and then wait a moment until you're directed back to Prolific.<br><br>,,319230,76,html-button-response,
1635,Main,,irb,,,,,,,0.0-0.0,,0,28520,"<p><font size=""3"">We invite you to participate in a research study on language production and comprehension. Your experimenter will ask you to do a linguistic task such as reading sentences or words, naming pictures or describing scenes, making up sentences of your own, or participating in a simple language game. <br><br>There are no risks or benefits of any kind involved in this study. <br><br>You will be paid for your participation at the posted rate.<br><br>If you have read this form and have decided to participate in this experiment, please understand your participation is voluntary and you have the right to withdraw your consent or discontinue participation at anytime without penalty or loss of benefits to which you are otherwise entitled. You have the right to refuse to do particular tasks. Your individual privacy will be maintained in all published and written data resulting from the study. You may print this form for your records.<br><br>CONTACT INFORMATION: If you have any questions, concerns or complaints about this research study, its procedures, risks and benefits, you should contact the Protocol Director Meghan Sumner at (650)-725-9336. If you are not satisfied with how this study is being conducted, or if you have any concerns, complaints, or general questions about the research or your rights as a participant, please contact the Stanford Institutional Review Board (IRB) to speak to someone independent of the research team at (650)-723-2480 or toll free at 1-866-680-2906. You can also write to the Stanford IRB, Stanford University, 3000 El Camino Real, Five Palo Alto Square, 4th Floor, Palo Alto, CA 94306 USA.<br><br>If you agree to participate, please proceed to the study tasks.</font></p>",,28524,0,html-button-response,
1635,Main,,instructions,,,,,,,0.0-1.0,, ,10733,"In this experiment, you will read a series of sentences and will be asked to indicate the word which best completes it.<br><br><strong>Please type the word 'is' or 'are' in the blank.</strong> <br><br>If you're unsure about your choice, follow your first instinct.<br><br>When you're ready to begin, press the space bar.",,39257,1,html-keyboard-response,
1635,Main,,,PP,those astronomers,P,these photographers,P,Critical,0.0-2.0-0.0,16,['are'],,,"Either those astronomers or these photographers %is,are% recording the solar eclipse.",51373,2,cloze,
1635,Main,,,SP,Andy,S,those farmers,P,Critical,0.0-2.0-0.1,22,['are'],,,"Either Andy or those farmers %is,are% tending to the crops.",58605,3,cloze,
1635,Main,,,PP,those carpenters,P,those kids,P,Critical,0.0-2.0-0.2,18,['are'],,,"Either those carpenters or those kids %is,are% building the tree house.",62742,4,cloze,
1635,Main,,,P,these architects,P,,,Filler,0.0-2.0-0.3,38,['are'],,,"These architects %is,are% designing the building's layout.",68048,5,cloze,
1635,Main,,,S,Liam,S,,,Filler,0.0-2.0-0.4,68,['is'],,,"Liam %is,are% solving the mystery case.",70939,6,cloze,
1635,Main,,,PP,those managers,P,those staff members,P,Critical,0.0-2.0-0.5,10,['are'],,,"Either those managers or those staff members %is,are% writing the end-of-year report.",75616,7,cloze,
1635,Main,,,S,Jimmy,S,,,Filler,0.0-2.0-0.6,61,['is'],,,"Jimmy %is,are% fertilizing the fields.",78521,8,cloze,
1635,Main,,,SP,Thomas,S,those tailors,P,Critical,0.0-2.0-0.7,19,['are'],,,"Either Thomas or those tailors %is,are% sewing the dresses.",81675,9,cloze,
1635,Main,,,SS,Lisa,S,George,S,Critical,0.0-2.0-0.8,5,['is'],,,"Either Lisa or George %is,are% preparing dinner.",90705,10,cloze,
1635,Main,,,PS,those designers,P,Brian,S,Filler,0.0-2.0-0.9,34,['are'],,,"Both those designers and Brian %is,are% creating the fashion collection.",94593,11,cloze,
1635,Main,,,SP,Hanako,S,those mechanics,P,Critical,0.0-2.0-0.10,4,['are'],,,"Either Hanako or those mechanics %is,are% repairing the truck engine.",98773,12,cloze,
1635,Main,,,S,Zeynab,S,,,Filler,0.0-2.0-0.11,54,['is'],,,"Zeynab %is,are% caring for the garden.",101494,13,cloze,
1635,Main,,,PP,these girls,P,those boys,P,Filler,0.0-2.0-0.12,26,['are'],,,"Both these girls and those boys %is,are% interviewing the movie star.",104212,14,cloze,
1635,Main,,,S,Elias,S,,,Filler,0.0-2.0-0.13,52,['is'],,,"Elias %is,are% leading the scientific research.",106897,15,cloze,
1635,Main,,,P,those farmers,P,,,Filler,0.0-2.0-0.14,47,['are'],,,"Those farmers %is,are% tending to the crops.",108479,16,cloze,
1635,Main,,,S,Pedro,S,,,Filler,0.0-2.0-0.15,53,['is'],,,"Pedro %is,are% editing the academic journal.",110720,17,cloze,
1635,Main,,,P,those tailors,P,,,Filler,0.0-2.0-0.16,44,['are'],,,"Those tailors %is,are% sewing the dresses.",112330,18,cloze,
1635,Main,,,SS,Krishna,S,Amir,S,Filler,0.0-2.0-0.17,37,['are'],,,"Both Krishna and Amir %is,are% analyzing the market trends.",115852,19,cloze,
1635,Main,,,S,Maria,S,,,Filler,0.0-2.0-0.18,64,['is'],,,"Maria %is,are% producing the documentary film.",118361,20,cloze,
1635,Main,,,S,Joey,S,,,Filler,0.0-2.0-0.19,70,['is'],,,"Joey %is,are% developing the game software.",120774,21,cloze,
1635,Main,,,S,Thomas,S,,,Filler,0.0-2.0-0.20,63,['is'],,,"Thomas %is,are% training at the sports center.",123100,22,cloze,
1635,Main,,,S,Lin,S,,,Filler,0.0-2.0-0.21,51,['is'],,,"Lin %is,are% reviewing the project proposals.",125400,23,cloze,
1635,Main,,,SS,Juan,S,Antonio,S,Critical,0.0-2.0-0.22,11,['are'],,,"Either Juan or Antonio %is,are% making the admission decisions.",134199,24,cloze,
1635,Main,,,SS,Mateo,S,Lin,S,Critical,0.0-2.0-0.23,13,['are'],,,"Either Mateo or Lin %is,are% designing the building's layout.",144557,25,cloze,
1635,Main,,,S,Hasan,S,,,Filler,0.0-2.0-0.24,65,['is'],,,"Hasan %is,are% decorating the gallery.",147126,26,cloze,
1635,Main,,,PS,these research assistants,P,Fatima,S,Filler,0.0-2.0-0.25,32,['are'],,,"Both these research assistants and Fatima %is,are% conducting the experiments.",153859,27,cloze,
1635,Main,,,PP,those art students,P,those illustrators,P,Critical,0.0-2.0-0.26,25,['are'],,,"Either those art students or those illustrators %is,are% sketching the concept art.",158486,28,cloze,
1635,Main,,,SP,Hanako,S,those mechanics,P,Filler,0.0-2.0-0.27,29,['are'],,,"Both Hanako and those mechanics %is,are% repairing the truck engine.",160760,29,cloze,
1635,Main,,,S,Andy,S,,,Filler,0.0-2.0-0.28,69,['is'],,,"Andy %is,are% capturing the wildlife in photographs.",163007,30,cloze,
1635,Main,,,P,those painters,P,,,Filler,0.0-2.0-0.29,46,['are'],,,"Those painters %is,are% using the art studio.",164368,31,cloze,
1635,Main,,,S,Noah,S,,,Filler,0.0-2.0-0.30,57,['is'],,,"Noah %is,are% servicing the air conditioning units.",166508,32,cloze,
1635,Main,,,PS,those electricians,P,Melissa,S,Critical,0.0-2.0-0.31,8,['are'],,,"Either those electricians or Melissa %is,are% fixing the wiring issues.",171095,33,cloze,
1635,Main,,,PP,these surgeons,P,those nurses,P,Critical,0.0-2.0-0.32,17,['are'],,,"Either these surgeons or those nurses %is,are% attending to the patients.",173401,34,cloze,
1635,Main,,,SP,Lisa,S,those children,P,Filler,0.0-2.0-0.33,30,['are'],,,"Both Lisa and those children %is,are% preparing dinner.",175427,35,cloze,
1635,Main,,,SS,Brian,S,Jamaal,S,Critical,0.0-2.0-0.34,9,['are'],,,"Either Brian or Jamaal %is,are% creating the fashion collection.",186171,36,cloze,
1635,Main,,,PS,those electricians,P,Melissa,S,Filler,0.0-2.0-0.35,33,['are'],,,"Both those electricians and Melissa %is,are% fixing the wiring issues.",189074,37,cloze,
1635,Main,,,SP,Ellen,S,those athletes,P,Critical,0.0-2.0-0.36,23,['are'],,,"Either Ellen or those athletes %is,are% working out at the gym.",191543,38,cloze,
1635,Main,,,PP,these professors,P,those students,P,Critical,0.0-2.0-0.37,2,['are'],,,"Either these professors or those students %is,are% drafting the important email.",194410,39,cloze,
1635,Main,,,S,Emma,S,,,Filler,0.0-2.0-0.38,55,['is'],,,"Emma %is,are% resolving the network issues",196840,40,cloze,
1635,Main,,,S,Peter,S,,,Filler,0.0-2.0-0.39,56,['is'],,,"Peter %is,are% composing the annual report.",199244,41,cloze,
1635,Main,,,SP,Fatima,S,these research assistants,P,Critical,0.0-2.0-0.40,7,['are'],,,"Either Fatima or these research assistants %is,are% conducting the experiments.",201181,42,cloze,
1635,Main,,,P,those editors,P,,,Filler,0.0-2.0-0.41,39,['are'],,,"Those editors %is,are% proofreading the manuscripts.",203489,43,cloze,
1635,Main,,,PS,those boys,P,John,S,Critical,0.0-2.0-0.42,1,['are'],,,"Either those boys or John %is,are% interviewing the movie star.",206021,44,cloze,
1635,Main,,,S,Yuki,S,,,Filler,0.0-2.0-0.43,66,['is'],,,"Yuki %is,are% evaluating the scholarship applications.",208352,45,cloze,
1635,Main,,,PP,these professors,P,those students,P,Filler,0.0-2.0-0.44,27,['are'],,,"Both these professors and those students %is,are% drafting the important email.",209966,46,cloze,
1635,Main,,,S,Mateo,S,,,Filler,0.0-2.0-0.45,50,['is'],,,"Mateo %is,are% organizing the charity event.",212217,47,cloze,
1635,Main,,,P,these photographers,P,,,Filler,0.0-2.0-0.46,41,['are'],,,"These photographers %is,are% recording the solar eclipse.",213817,48,cloze,
1635,Main,,,S,Ali,S,,,Filler,0.0-2.0-0.47,72,['is'],,,"Ali %is,are% cooking the festive meal.",215992,49,cloze,
1635,Main,,,S,Alex,S,,,Filler,0.0-2.0-0.48,58,['is'],,,"Alex %is,are% installing the security system.",218486,50,cloze,
1635,Main,,,SS,Sarah,S,Matt,S,Filler,0.0-2.0-0.49,35,['are'],,,"Both Sarah and Matt %is,are% writing the end-of-year report.",222862,51,cloze,
1635,Main,,,SP,David,S,those plumbers,P,Filler,0.0-2.0-0.50,31,['are'],,,"Both David and those plumbers %is,are% fixing the leaking pipe.",224496,52,cloze,
1635,Main,,,S,Kim,S,,,Filler,0.0-2.0-0.51,60,['is'],,,"Kim %is,are% cataloging the library collection.",226764,53,cloze,
1635,Main,,,P,those lawyers,P,,,Filler,0.0-2.0-0.52,40,['are'],,,"Those lawyers %is,are% handling the legal documents.",228125,54,cloze,
1635,Main,,,SP,Hank,S,those parents,P,Critical,0.0-2.0-0.53,24,['are'],,,"Either Hank or those parents %is,are% taking care of the babies.",229794,55,cloze,
1635,Main,,,PP,those police officers,P,those detectives,P,Filler,0.0-2.0-0.54,28,['are'],,,"Both those police officers and those detectives %is,are% investigating the crime scene.",231728,56,cloze,
1635,Main,,,PP,those secretaries,P,those editors,P,Critical,0.0-2.0-0.55,14,['are'],,,"Either those secretaries or those editors %is,are% proofreading the manuscripts.",235394,57,cloze,
1635,Main,,,S,Carlos,S,,,Filler,0.0-2.0-0.56,62,['is'],,,"Carlos %is,are% painting the mural.",237746,58,cloze,
1635,Main,,,S,Ellen,S,,,Filler,0.0-2.0-0.57,71,['is'],,,"Ellen %is,are% renovating the historic building.",239909,59,cloze,
1635,Main,,,P,those volunteers,P,,,Filler,0.0-2.0-0.58,45,['are'],,,"Those volunteers %is,are% sorting the books.",241146,60,cloze,
1635,Main,,,PS,those plumbers,P,David,S,Critical,0.0-2.0-0.59,6,['are'],,,"Either those plumbers or David %is,are% fixing the leaking pipe.",243545,61,cloze,
1635,Main,,,P,those parents,P,,,Filler,0.0-2.0-0.60,49,['are'],,,"Those parents %is,are% taking care of the babies.",245171,62,cloze,
1635,Main,,,SS,Juan,S,Antonio,S,Filler,0.0-2.0-0.61,36,['are'],,,"Both Juan and Antonio %is,are% making the admission decisions.",247223,63,cloze,
1635,Main,,,P,those kids,P,,,Filler,0.0-2.0-0.62,43,['are'],,,"Those kids %is,are% building the tree house.",248671,64,cloze,
1635,Main,,,S,Hank,S,,,Filler,0.0-2.0-0.63,73,['is'],,,"Hank %is,are% constructing the playground.",250686,65,cloze,
1635,Main,,,S,Bill,S,,,Filler,0.0-2.0-0.64,59,['is'],,,"Bill %is,are% planning the conference.",252839,66,cloze,
1635,Main,,,PS,those volunteers,P,Hasan,S,Critical,0.0-2.0-0.65,20,['are'],,,"Either those volunteers or Hasan %is,are% sorting the books.",255200,67,cloze,
1635,Main,,,S,Lydia,S,,,Filler,0.0-2.0-0.66,67,['is'],,,"Lydia %is,are% tailoring the costumes.",257657,68,cloze,
1635,Main,,,SP,Krishna,S,those statisticians,P,Critical,0.0-2.0-0.67,12,['are'],,,"Either Krishna or those statisticians %is,are% analyzing the market trends.",259153,69,cloze,
1635,Main,,,P,those athletes,P,,,Filler,0.0-2.0-0.68,48,['are'],,,"Those athletes %is,are% working out at the gym.",260642,70,cloze,
1635,Main,,,P,those nurses,P,,,Filler,0.0-2.0-0.69,42,['are'],,,"Those nurses %is,are% attending to the patients.",262027,71,cloze,
1635,Main,,,SS,Peter,S,Noah,S,Critical,0.0-2.0-0.70,15,['is'],,,"Either Peter or Noah %is,are% handling the legal documents.",265143,72,cloze,
1635,Main,,,PP,those sculptors,P,those painters,P,Critical,0.0-2.0-0.71,21,['are'],,,"Either those sculptors or those painters %is,are% using the art studio.",266910,73,cloze,
1635,Main,,,PP,those police officers,P,those detectives,P,Critical,0.0-2.0-0.72,3,['are'],,,"Either those police officers or those detectives %is,are% investigating the crime scene.",268645,74,cloze,
1635,Main,[],demographics,,,,,,,0.0-3.0,,"{'age': '27', 'P0_Q0': None, 'enjoy': 'Better than the average experiment', 'gender': 'Male', 'correct': 'Yes', 'payment': 'The payment was fair', 'comments': 'Nope.', 'language': 'Yes', 'education': 'Graduated college', 'other-language': ''}",31689,,,300359,75,survey,
1635,Main,,thanks,,,,,,,0.0-4.0,,0,3157,Thank you for your time! Please click 'Continue' and then wait a moment until you're directed back to Prolific.<br><br>,,303517,76,html-button-response,
1633,Main,,irb,,,,,,,0.0-0.0,,0,3637,"<p><font size=""3"">We invite you to participate in a research study on language production and comprehension. Your experimenter will ask you to do a linguistic task such as reading sentences or words, naming pictures or describing scenes, making up sentences of your own, or participating in a simple language game. <br><br>There are no risks or benefits of any kind involved in this study. <br><br>You will be paid for your participation at the posted rate.<br><br>If you have read this form and have decided to participate in this experiment, please understand your participation is voluntary and you have the right to withdraw your consent or discontinue participation at anytime without penalty or loss of benefits to which you are otherwise entitled. You have the right to refuse to do particular tasks. Your individual privacy will be maintained in all published and written data resulting from the study. You may print this form for your records.<br><br>CONTACT INFORMATION: If you have any questions, concerns or complaints about this research study, its procedures, risks and benefits, you should contact the Protocol Director Meghan Sumner at (650)-725-9336. If you are not satisfied with how this study is being conducted, or if you have any concerns, complaints, or general questions about the research or your rights as a participant, please contact the Stanford Institutional Review Board (IRB) to speak to someone independent of the research team at (650)-723-2480 or toll free at 1-866-680-2906. You can also write to the Stanford IRB, Stanford University, 3000 El Camino Real, Five Palo Alto Square, 4th Floor, Palo Alto, CA 94306 USA.<br><br>If you agree to participate, please proceed to the study tasks.</font></p>",,3647,0,html-button-response,
1633,Main,,instructions,,,,,,,0.0-1.0,, ,9456,"In this experiment, you will read a series of sentences and will be asked to indicate the word which best completes it.<br><br><strong>Please type the word 'is' or 'are' in the blank.</strong> <br><br>If you're unsure about your choice, follow your first instinct.<br><br>When you're ready to begin, press the space bar.",,13104,1,html-keyboard-response,
1633,Main,,,PS,those staff members,P,Sarah,S,Critical,0.0-2.0-0.0,10,['are'],,,"Either those staff members or Sarah %is,are% writing the end-of-year report.",22174,2,cloze,
1633,Main,,,PP,those gardeners,P,those farmers,P,Critical,0.0-2.0-0.1,22,['are'],,,"Either those gardeners or those farmers %is,are% tending to the crops.",25958,3,cloze,
1633,Main,,,P,those lawyers,P,,,Filler,0.0-2.0-0.2,40,['are'],,,"Those lawyers %is,are% handling the legal documents.",28922,4,cloze,
1633,Main,,,S,Carlos,S,,,Filler,0.0-2.0-0.3,62,['is'],,,"Carlos %is,are% painting the mural.",31588,5,cloze,
1633,Main,,,P,those farmers,P,,,Filler,0.0-2.0-0.4,47,['are'],,,"Those farmers %is,are% tending to the crops.",33297,6,cloze,
1633,Main,,,P,these architects,P,,,Filler,0.0-2.0-0.5,38,['are'],,,"These architects %is,are% designing the building's layout.",35552,7,cloze,
1633,Main,,,PS,those electricians,P,Melissa,S,Critical,0.0-2.0-0.6,8,['is'],,,"Either those electricians or Melissa %is,are% fixing the wiring issues.",38793,8,cloze,
1633,Main,,,PS,those electricians,P,Melissa,S,Filler,0.0-2.0-0.7,33,['are'],,,"Both those electricians and Melissa %is,are% fixing the wiring issues.",45287,9,cloze,
1633,Main,,,SP,David,S,those plumbers,P,Filler,0.0-2.0-0.8,31,['are'],,,"Both David and those plumbers %is,are% fixing the leaking pipe.",47761,10,cloze,
1633,Main,,,P,those tailors,P,,,Filler,0.0-2.0-0.9,44,['are'],,,"Those tailors %is,are% sewing the dresses.",50830,11,cloze,
1633,Main,,,SP,Lisa,S,those children,P,Filler,0.0-2.0-0.10,30,['are'],,,"Both Lisa and those children %is,are% preparing dinner.",52919,12,cloze,
1633,Main,,,P,those nurses,P,,,Filler,0.0-2.0-0.11,42,['are'],,,"Those nurses %is,are% attending to the patients.",54589,13,cloze,
1633,Main,,,S,Noah,S,,,Filler,0.0-2.0-0.12,57,['is'],,,"Noah %is,are% servicing the air conditioning units.",57084,14,cloze,
1633,Main,,,S,Joey,S,,,Filler,0.0-2.0-0.13,70,['is'],,,"Joey %is,are% developing the game software.",59721,15,cloze,
1633,Main,,,PS,those volunteers,P,Hasan,S,Critical,0.0-2.0-0.14,20,['are'],,,"Either those volunteers or Hasan %is,are% sorting the books.",65686,16,cloze,
1633,Main,,,SS,William,S,Jackie,S,Critical,0.0-2.0-0.15,2,['is'],,,"Either William or Jackie %is,are% drafting the important email.",69227,17,cloze,
1633,Main,,,S,Andy,S,,,Filler,0.0-2.0-0.16,69,['is'],,,"Andy %is,are% capturing the wildlife in photographs.",71932,18,cloze,
1633,Main,,,S,Thomas,S,,,Filler,0.0-2.0-0.17,63,['is'],,,"Thomas %is,are% training at the sports center.",74291,19,cloze,
1633,Main,,,SS,Fatima,S,Lucas,S,Critical,0.0-2.0-0.18,7,['is'],,,"Either Fatima or Lucas %is,are% conducting the experiments.",77091,20,cloze,
1633,Main,,,S,Hank,S,,,Filler,0.0-2.0-0.19,73,['is'],,,"Hank %is,are% constructing the playground.",79355,21,cloze,
1633,Main,,,S,Alex,S,,,Filler,0.0-2.0-0.20,58,['is'],,,"Alex %is,are% installing the security system.",81415,22,cloze,
1633,Main,,,SP,Peter,S,those lawyers,P,Critical,0.0-2.0-0.21,15,['are'],,,"Either Peter or those lawyers %is,are% handling the legal documents.",84175,23,cloze,
1633,Main,,,SP,Hanako,S,those mechanics,P,Filler,0.0-2.0-0.22,29,['are'],,,"Both Hanako and those mechanics %is,are% repairing the truck engine.",86627,24,cloze,
1633,Main,,,P,those painters,P,,,Filler,0.0-2.0-0.23,46,['are'],,,"Those painters %is,are% using the art studio.",88019,25,cloze,
1633,Main,,,S,Mateo,S,,,Filler,0.0-2.0-0.24,50,['is'],,,"Mateo %is,are% organizing the charity event.",90465,26,cloze,
1633,Main,,,S,Elias,S,,,Filler,0.0-2.0-0.25,52,['is'],,,"Elias %is,are% leading the scientific research.",92837,27,cloze,
1633,Main,,,SP,Hossein,S,those illustrators,P,Critical,0.0-2.0-0.26,25,['are'],,,"Either Hossein or those illustrators %is,are% sketching the concept art.",94751,28,cloze,
1633,Main,,,PP,these professors,P,those students,P,Filler,0.0-2.0-0.27,27,['are'],,,"Both these professors and those students %is,are% drafting the important email.",102991,29,cloze,
1633,Main,,,P,these photographers,P,,,Filler,0.0-2.0-0.28,41,['are'],,,"These photographers %is,are% recording the solar eclipse.",104915,30,cloze,
1633,Main,,,PP,those secretaries,P,those editors,P,Critical,0.0-2.0-0.29,14,['are'],,,"Either those secretaries or those editors %is,are% proofreading the manuscripts.",106633,31,cloze,
1633,Main,,,P,those kids,P,,,Filler,0.0-2.0-0.30,43,['are'],,,"Those kids %is,are% building the tree house.",108311,32,cloze,
1633,Main,,,SP,Lydia,S,those painters,P,Critical,0.0-2.0-0.31,21,['are'],,,"Either Lydia or those painters %is,are% using the art studio.",109819,33,cloze,
1633,Main,,,S,Lin,S,,,Filler,0.0-2.0-0.32,51,['is'],,,"Lin %is,are% reviewing the project proposals.",112297,34,cloze,
1633,Main,,,PP,these girls,P,those boys,P,Critical,0.0-2.0-0.33,1,['are'],,,"Either these girls or those boys %is,are% interviewing the movie star.",115805,35,cloze,
1633,Main,,,PS,these research assistants,P,Fatima,S,Filler,0.0-2.0-0.34,32,['are'],,,"Both these research assistants and Fatima %is,are% conducting the experiments.",118167,36,cloze,
1633,Main,,,SS,Lisa,S,George,S,Critical,0.0-2.0-0.35,5,['is'],,,"Either Lisa or George %is,are% preparing dinner.",121439,37,cloze,
1633,Main,,,S,Zeynab,S,,,Filler,0.0-2.0-0.36,54,['is'],,,"Zeynab %is,are% caring for the garden.",123963,38,cloze,
1633,Main,,,PS,those mechanics,P,Hanako,S,Critical,0.0-2.0-0.37,4,['are'],,,"Either those mechanics or Hanako %is,are% repairing the truck engine.",126705,39,cloze,
1633,Main,,,S,Bill,S,,,Filler,0.0-2.0-0.38,59,['is'],,,"Bill %is,are% planning the conference.",129053,40,cloze,
1633,Main,,,S,Yuki,S,,,Filler,0.0-2.0-0.39,66,['is'],,,"Yuki %is,are% evaluating the scholarship applications.",131209,41,cloze,
1633,Main,,,S,Liam,S,,,Filler,0.0-2.0-0.40,68,['is'],,,"Liam %is,are% solving the mystery case.",134123,42,cloze,
1633,Main,,,SP,Juan,S,these teachers,P,Critical,0.0-2.0-0.41,11,['are'],,,"Either Juan or these teachers %is,are% making the admission decisions.",135524,43,cloze,
1633,Main,,,S,Peter,S,,,Filler,0.0-2.0-0.42,56,['is'],,,"Peter %is,are% composing the annual report.",137783,44,cloze,
1633,Main,,,SS,Sarah,S,Matt,S,Filler,0.0-2.0-0.43,35,['are'],,,"Both Sarah and Matt %is,are% writing the end-of-year report.",141903,45,cloze,
1633,Main,,,P,those editors,P,,,Filler,0.0-2.0-0.44,39,['are'],,,"Those editors %is,are% proofreading the manuscripts.",144057,46,cloze,
1633,Main,,,PP,those police officers,P,those detectives,P,Critical,0.0-2.0-0.45,3,['are'],,,"Either those police officers or those detectives %is,are% investigating the crime scene.",148589,47,cloze,
1633,Main,,,SS,Juan,S,Antonio,S,Filler,0.0-2.0-0.46,36,['are'],,,"Both Juan and Antonio %is,are% making the admission decisions.",151454,48,cloze,
1633,Main,,,S,Emma,S,,,Filler,0.0-2.0-0.47,55,['is'],,,"Emma %is,are% resolving the network issues",154056,49,cloze,
1633,Main,,,PP,these girls,P,those boys,P,Filler,0.0-2.0-0.48,26,['are'],,,"Both these girls and those boys %is,are% interviewing the movie star.",155686,50,cloze,
1633,Main,,,SP,Ellen,S,those athletes,P,Critical,0.0-2.0-0.49,23,['are'],,,"Either Ellen or those athletes %is,are% working out at the gym.",157600,51,cloze,
1633,Main,,,PP,those police officers,P,those detectives,P,Filler,0.0-2.0-0.50,28,['are'],,,"Both those police officers and those detectives %is,are% investigating the crime scene.",159308,52,cloze,
1633,Main,,,S,Ellen,S,,,Filler,0.0-2.0-0.51,71,['is'],,,"Ellen %is,are% renovating the historic building.",162158,53,cloze,
1633,Main,,,PP,these housekeepers,P,those plumbers,P,Critical,0.0-2.0-0.52,6,['are'],,,"Either these housekeepers or those plumbers %is,are% fixing the leaking pipe.",163944,54,cloze,
1633,Main,,,SS,Krishna,S,Amir,S,Filler,0.0-2.0-0.53,37,['are'],,,"Both Krishna and Amir %is,are% analyzing the market trends.",166140,55,cloze,
1633,Main,,,PS,those designers,P,Brian,S,Filler,0.0-2.0-0.54,34,['are'],,,"Both those designers and Brian %is,are% creating the fashion collection.",167838,56,cloze,
1633,Main,,,S,Kim,S,,,Filler,0.0-2.0-0.55,60,['is'],,,"Kim %is,are% cataloging the library collection.",170250,57,cloze,
1633,Main,,,PS,these photographers,P,Alex,S,Critical,0.0-2.0-0.56,16,['are'],,,"Either these photographers or Alex %is,are% recording the solar eclipse.",173598,58,cloze,
1633,Main,,,S,Hasan,S,,,Filler,0.0-2.0-0.57,65,['is'],,,"Hasan %is,are% decorating the gallery.",176104,59,cloze,
1633,Main,,,S,Jimmy,S,,,Filler,0.0-2.0-0.58,61,['is'],,,"Jimmy %is,are% fertilizing the fields.",178664,60,cloze,
1633,Main,,,S,Lydia,S,,,Filler,0.0-2.0-0.59,67,['is'],,,"Lydia %is,are% tailoring the costumes.",181134,61,cloze,
1633,Main,,,PP,these stylists,P,those designers,P,Critical,0.0-2.0-0.60,9,['are'],,,"Either these stylists or those designers %is,are% creating the fashion collection.",182874,62,cloze,
1633,Main,,,S,Pedro,S,,,Filler,0.0-2.0-0.61,53,['is'],,,"Pedro %is,are% editing the academic journal.",184936,63,cloze,
1633,Main,,,SP,Bill,S,those nurses,P,Critical,0.0-2.0-0.62,17,['are'],,,"Either Bill or those nurses %is,are% attending to the patients.",186394,64,cloze,
1633,Main,,,SP,Mateo,S,these architects,P,Critical,0.0-2.0-0.63,13,['are'],,,"Either Mateo or these architects %is,are% designing the building's layout.",187600,65,cloze,
1633,Main,,,P,those parents,P,,,Filler,0.0-2.0-0.64,49,['are'],,,"Those parents %is,are% taking care of the babies.",189102,66,cloze,
1633,Main,,,SP,Hank,S,those parents,P,Critical,0.0-2.0-0.65,24,['are'],,,"Either Hank or those parents %is,are% taking care of the babies.",190342,67,cloze,
1633,Main,,,PS,those statisticians,P,Krishna,S,Critical,0.0-2.0-0.66,12,['are'],,,"Either those statisticians or Krishna %is,are% analyzing the market trends.",191784,68,cloze,
1633,Main,,,S,Ali,S,,,Filler,0.0-2.0-0.67,72,['is'],,,"Ali %is,are% cooking the festive meal.",193872,69,cloze,
1633,Main,,,P,those volunteers,P,,,Filler,0.0-2.0-0.68,45,['are'],,,"Those volunteers %is,are% sorting the books.",195363,70,cloze,
1633,Main,,,S,Maria,S,,,Filler,0.0-2.0-0.69,64,['is'],,,"Maria %is,are% producing the documentary film.",197444,71,cloze,
1633,Main,,,P,those athletes,P,,,Filler,0.0-2.0-0.70,48,['are'],,,"Those athletes %is,are% working out at the gym.",198870,72,cloze,
1633,Main,,,PP,these fashion designers,P,those tailors,P,Critical,0.0-2.0-0.71,19,['are'],,,"Either these fashion designers or those tailors %is,are% sewing the dresses.",200390,73,cloze,
1633,Main,,,PS,those kids,P,Jimmy,S,Critical,0.0-2.0-0.72,18,['are'],,,"Either those kids or Jimmy %is,are% building the tree house.",201852,74,cloze,
1633,Main,[],demographics,,,,,,,0.0-3.0,,"{'age': '23', 'P0_Q0': None, 'enjoy': 'An average experiment', 'gender': 'Male', 'correct': 'Yes', 'payment': 'The payment was fair', 'comments': '', 'language': 'Yes', 'education': 'Graduated college', 'other-language': ''}",17982,,,219900,75,survey,
1633,Main,,thanks,,,,,,,0.0-4.0,,0,1891,Thank you for your time! Please click 'Continue' and then wait a moment until you're directed back to Prolific.<br><br>,,221794,76,html-button-response,
1648,Main,,irb,,,,,,,0.0-0.0,,0,13160,"<p><font size=""3"">We invite you to participate in a research study on language production and comprehension. Your experimenter will ask you to do a linguistic task such as reading sentences or words, naming pictures or describing scenes, making up sentences of your own, or participating in a simple language game. <br><br>There are no risks or benefits of any kind involved in this study. <br><br>You will be paid for your participation at the posted rate.<br><br>If you have read this form and have decided to participate in this experiment, please understand your participation is voluntary and you have the right to withdraw your consent or discontinue participation at anytime without penalty or loss of benefits to which you are otherwise entitled. You have the right to refuse to do particular tasks. Your individual privacy will be maintained in all published and written data resulting from the study. You may print this form for your records.<br><br>CONTACT INFORMATION: If you have any questions, concerns or complaints about this research study, its procedures, risks and benefits, you should contact the Protocol Director Meghan Sumner at (650)-725-9336. If you are not satisfied with how this study is being conducted, or if you have any concerns, complaints, or general questions about the research or your rights as a participant, please contact the Stanford Institutional Review Board (IRB) to speak to someone independent of the research team at (650)-723-2480 or toll free at 1-866-680-2906. You can also write to the Stanford IRB, Stanford University, 3000 El Camino Real, Five Palo Alto Square, 4th Floor, Palo Alto, CA 94306 USA.<br><br>If you agree to participate, please proceed to the study tasks.</font></p>",,13169,0,html-button-response,
1648,Main,,instructions,,,,,,,0.0-1.0,, ,11572,"In this experiment, you will read a series of sentences and will be asked to indicate the word which best completes it.<br><br><strong>Please type the word 'is' or 'are' in the blank.</strong> <br><br>If you're unsure about your choice, follow your first instinct.<br><br>When you're ready to begin, press the space bar.",,24746,1,html-keyboard-response,
1648,Main,,,S,Liam,S,,,Filler,0.0-2.0-0.0,68,['is'],,,"Liam %is,are% solving the mystery case.",30390,2,cloze,
1648,Main,,,P,these photographers,P,,,Filler,0.0-2.0-0.1,41,['are'],,,"These photographers %is,are% recording the solar eclipse.",33318,3,cloze,
1648,Main,,,PP,these professors,P,those students,P,Filler,0.0-2.0-0.2,27,['are'],,,"Both these professors and those students %is,are% drafting the important email.",38974,4,cloze,
1648,Main,,,P,those nurses,P,,,Filler,0.0-2.0-0.3,42,['are'],,,"Those nurses %is,are% attending to the patients.",42062,5,cloze,
1648,Main,,,S,Elias,S,,,Filler,0.0-2.0-0.4,52,['is'],,,"Elias %is,are% leading the scientific research.",46150,6,cloze,
1648,Main,,,S,Andy,S,,,Filler,0.0-2.0-0.5,69,['is'],,,"Andy %is,are% capturing the wildlife in photographs.",49741,7,cloze,
1648,Main,,,SP,David,S,those plumbers,P,Filler,0.0-2.0-0.6,31,['are'],,,"Both David and those plumbers %is,are% fixing the leaking pipe.",53806,8,cloze,
1648,Main,,,S,Lydia,S,,,Filler,0.0-2.0-0.7,67,['is'],,,"Lydia %is,are% tailoring the costumes.",57382,9,cloze,
1648,Main,,,PP,those astronomers,P,these photographers,P,Critical,0.0-2.0-0.8,16,['are'],,,"Either those astronomers or these photographers %is,are% recording the solar eclipse.",64781,10,cloze,
1648,Main,,,PP,these girls,P,those boys,P,Filler,0.0-2.0-0.9,26,['are'],,,"Both these girls and those boys %is,are% interviewing the movie star.",68926,11,cloze,
1648,Main,,,PS,those designers,P,Brian,S,Filler,0.0-2.0-0.10,34,['are'],,,"Both those designers and Brian %is,are% creating the fashion collection.",75998,12,cloze,
1648,Main,,,S,Mateo,S,,,Filler,0.0-2.0-0.11,50,['is'],,,"Mateo %is,are% organizing the charity event.",78974,13,cloze,
1648,Main,,,S,Carlos,S,,,Filler,0.0-2.0-0.12,62,['is'],,,"Carlos %is,are% painting the mural.",82165,14,cloze,
1648,Main,,,SP,Melissa,S,those electricians,P,Critical,0.0-2.0-0.13,8,['are'],,,"Either Melissa or those electricians %is,are% fixing the wiring issues.",93510,15,cloze,
1648,Main,,,S,Bill,S,,,Filler,0.0-2.0-0.14,59,['is'],,,"Bill %is,are% planning the conference.",96230,16,cloze,
1648,Main,,,P,those editors,P,,,Filler,0.0-2.0-0.15,39,['are'],,,"Those editors %is,are% proofreading the manuscripts.",98757,17,cloze,
1648,Main,,,SP,Lisa,S,those children,P,Filler,0.0-2.0-0.16,30,['are'],,,"Both Lisa and those children %is,are% preparing dinner.",101518,18,cloze,
1648,Main,,,PP,those police officers,P,those detectives,P,Filler,0.0-2.0-0.17,28,['are'],,,"Both those police officers and those detectives %is,are% investigating the crime scene.",104350,19,cloze,
1648,Main,,,S,Maria,S,,,Filler,0.0-2.0-0.18,64,['is'],,,"Maria %is,are% producing the documentary film.",107542,20,cloze,
1648,Main,,,S,Alex,S,,,Filler,0.0-2.0-0.19,58,['is'],,,"Alex %is,are% installing the security system.",110622,21,cloze,
1648,Main,,,SS,Jimmy,S,Carlos,S,Critical,0.0-2.0-0.20,18,['are'],,,"Either Jimmy or Carlos %is,are% building the tree house.",114782,22,cloze,
1648,Main,,,S,Yuki,S,,,Filler,0.0-2.0-0.21,66,['is'],,,"Yuki %is,are% evaluating the scholarship applications.",117726,23,cloze,
1648,Main,,,SP,Krishna,S,those statisticians,P,Critical,0.0-2.0-0.22,12,['are'],,,"Either Krishna or those statisticians %is,are% analyzing the market trends.",121118,24,cloze,
1648,Main,,,P,those tailors,P,,,Filler,0.0-2.0-0.23,44,['are'],,,"Those tailors %is,are% sewing the dresses.",124102,25,cloze,
1648,Main,,,P,those parents,P,,,Filler,0.0-2.0-0.24,49,['are'],,,"Those parents %is,are% taking care of the babies.",127829,26,cloze,
1648,Main,,,S,Hank,S,,,Filler,0.0-2.0-0.25,73,['is'],,,"Hank %is,are% constructing the playground.",130958,27,cloze,
1648,Main,,,SS,Thomas,S,Maria,S,Critical,0.0-2.0-0.26,19,['is'],,,"Either Thomas or Maria %is,are% sewing the dresses.",140830,28,cloze,
1648,Main,,,PS,those mechanics,P,Hanako,S,Critical,0.0-2.0-0.27,4,['are'],,,"Either those mechanics or Hanako %is,are% repairing the truck engine.",144837,29,cloze,
1648,Main,,,SP,Lisa,S,those children,P,Critical,0.0-2.0-0.28,5,['are'],,,"Either Lisa or those children %is,are% preparing dinner.",148014,30,cloze,
1648,Main,,,P,those volunteers,P,,,Filler,0.0-2.0-0.29,45,['are'],,,"Those volunteers %is,are% sorting the books.",150773,31,cloze,
1648,Main,,,PP,these paralegals,P,those lawyers,P,Critical,0.0-2.0-0.30,15,['are'],,,"Either these paralegals or those lawyers %is,are% handling the legal documents.",155150,32,cloze,
1648,Main,,,P,those athletes,P,,,Filler,0.0-2.0-0.31,48,['are'],,,"Those athletes %is,are% working out at the gym.",158134,33,cloze,
1648,Main,,,PP,these housekeepers,P,those plumbers,P,Critical,0.0-2.0-0.32,6,['are'],,,"Either these housekeepers or those plumbers %is,are% fixing the leaking pipe.",162300,34,cloze,
1648,Main,,,S,Hasan,S,,,Filler,0.0-2.0-0.33,65,['is'],,,"Hasan %is,are% decorating the gallery.",166214,35,cloze,
1648,Main,,,S,Kim,S,,,Filler,0.0-2.0-0.34,60,['is'],,,"Kim %is,are% cataloging the library collection.",168998,36,cloze,
1648,Main,,,PS,those electricians,P,Melissa,S,Filler,0.0-2.0-0.35,33,['are'],,,"Both those electricians and Melissa %is,are% fixing the wiring issues.",172782,37,cloze,
1648,Main,,,SP,Hasan,S,those volunteers,P,Critical,0.0-2.0-0.36,20,['are'],,,"Either Hasan or those volunteers %is,are% sorting the books.",176246,38,cloze,
1648,Main,,,SS,Zeynab,S,Emma,S,Critical,0.0-2.0-0.37,14,['is'],,,"Either Zeynab or Emma %is,are% proofreading the manuscripts.",181774,39,cloze,
1648,Main,,,SS,Krishna,S,Amir,S,Filler,0.0-2.0-0.38,37,['are'],,,"Both Krishna and Amir %is,are% analyzing the market trends.",183989,40,cloze,
1648,Main,,,P,those painters,P,,,Filler,0.0-2.0-0.39,46,['are'],,,"Those painters %is,are% using the art studio.",186790,41,cloze,
1648,Main,,,P,these architects,P,,,Filler,0.0-2.0-0.40,38,['are'],,,"These architects %is,are% designing the building's layout.",189398,42,cloze,
1648,Main,,,PP,these surgeons,P,those nurses,P,Critical,0.0-2.0-0.41,17,['are'],,,"Either these surgeons or those nurses %is,are% attending to the patients.",192534,43,cloze,
1648,Main,,,SS,Sarah,S,Matt,S,Filler,0.0-2.0-0.42,35,['are'],,,"Both Sarah and Matt %is,are% writing the end-of-year report.",195422,44,cloze,
1648,Main,,,P,those farmers,P,,,Filler,0.0-2.0-0.43,47,['are'],,,"Those farmers %is,are% tending to the crops.",199334,45,cloze,
1648,Main,,,SP,Mateo,S,these architects,P,Critical,0.0-2.0-0.44,13,['are'],,,"Either Mateo or these architects %is,are% designing the building's layout.",204774,46,cloze,
1648,Main,,,SP,Brian,S,those designers,P,Critical,0.0-2.0-0.45,9,['are'],,,"Either Brian or those designers %is,are% creating the fashion collection.",208046,47,cloze,
1648,Main,,,S,Jimmy,S,,,Filler,0.0-2.0-0.46,61,['is'],,,"Jimmy %is,are% fertilizing the fields.",211350,48,cloze,
1648,Main,,,PS,these research assistants,P,Fatima,S,Critical,0.0-2.0-0.47,7,['are'],,,"Either these research assistants or Fatima %is,are% conducting the experiments.",216149,49,cloze,
1648,Main,,,SP,Harry,S,those detectives,P,Critical,0.0-2.0-0.48,3,['are'],,,"Either Harry or those detectives %is,are% investigating the crime scene.",218782,50,cloze,
1648,Main,,,SS,Juan,S,Antonio,S,Filler,0.0-2.0-0.49,36,['are'],,,"Both Juan and Antonio %is,are% making the admission decisions.",221990,51,cloze,
1648,Main,,,SP,Andy,S,those farmers,P,Critical,0.0-2.0-0.50,22,['are'],,,"Either Andy or those farmers %is,are% tending to the crops.",227574,52,cloze,
1648,Main,,,S,Emma,S,,,Filler,0.0-2.0-0.51,55,['is'],,,"Emma %is,are% resolving the network issues",230535,53,cloze,
1648,Main,,,PP,those art students,P,those illustrators,P,Critical,0.0-2.0-0.52,25,['are'],,,"Either those art students or those illustrators %is,are% sketching the concept art.",235366,54,cloze,
1648,Main,,,S,Peter,S,,,Filler,0.0-2.0-0.53,56,['is'],,,"Peter %is,are% composing the annual report.",238230,55,cloze,
1648,Main,,,PS,those athletes,P,Ellen,S,Critical,0.0-2.0-0.54,23,['are'],,,"Either those athletes or Ellen %is,are% working out at the gym.",243190,56,cloze,
1648,Main,,,P,those lawyers,P,,,Filler,0.0-2.0-0.55,40,['are'],,,"Those lawyers %is,are% handling the legal documents.",245702,57,cloze,
1648,Main,,,S,Noah,S,,,Filler,0.0-2.0-0.56,57,['is'],,,"Noah %is,are% servicing the air conditioning units.",248510,58,cloze,
1648,Main,,,S,Joey,S,,,Filler,0.0-2.0-0.57,70,['is'],,,"Joey %is,are% developing the game software.",251006,59,cloze,
1648,Main,,,S,Thomas,S,,,Filler,0.0-2.0-0.58,63,['is'],,,"Thomas %is,are% training at the sports center.",253390,60,cloze,
1648,Main,,,S,Ali,S,,,Filler,0.0-2.0-0.59,72,['is'],,,"Ali %is,are% cooking the festive meal.",255886,61,cloze,
1648,Main,,,PS,these research assistants,P,Fatima,S,Filler,0.0-2.0-0.60,32,['are'],,,"Both these research assistants and Fatima %is,are% conducting the experiments.",258646,62,cloze,
1648,Main,,,P,those kids,P,,,Filler,0.0-2.0-0.61,43,['are'],,,"Those kids %is,are% building the tree house.",262421,63,cloze,
1648,Main,,,SS,Juan,S,Antonio,S,Critical,0.0-2.0-0.62,11,['is'],,,"Either Juan or Antonio %is,are% making the admission decisions.",267847,64,cloze,
1648,Main,,,SS,Lydia,S,Liam,S,Critical,0.0-2.0-0.63,21,['is'],,,"Either Lydia or Liam %is,are% using the art studio.",270574,65,cloze,
1648,Main,,,SS,Hank,S,Pedro,S,Critical,0.0-2.0-0.64,24,['is'],,,"Either Hank or Pedro %is,are% taking care of the babies.",273806,66,cloze,
1648,Main,,,PS,those students,P,William,S,Critical,0.0-2.0-0.65,2,['are'],,,"Either those students or William %is,are% drafting the important email.",277134,67,cloze,
1648,Main,,,S,Zeynab,S,,,Filler,0.0-2.0-0.66,54,['is'],,,"Zeynab %is,are% caring for the garden.",279989,68,cloze,
1648,Main,,,PS,those staff members,P,Sarah,S,Critical,0.0-2.0-0.67,10,['are'],,,"Either those staff members or Sarah %is,are% writing the end-of-year report.",283614,69,cloze,
1648,Main,,,S,Pedro,S,,,Filler,0.0-2.0-0.68,53,['is'],,,"Pedro %is,are% editing the academic journal.",286013,70,cloze,
1648,Main,,,S,Ellen,S,,,Filler,0.0-2.0-0.69,71,['is'],,,"Ellen %is,are% renovating the historic building.",288694,71,cloze,
1648,Main,,,S,Lin,S,,,Filler,0.0-2.0-0.70,51,['is'],,,"Lin %is,are% reviewing the project proposals.",291910,72,cloze,
1648,Main,,,SS,John,S,Mary,S,Critical,0.0-2.0-0.71,1,['are'],,,"Either John or Mary %is,are% interviewing the movie star.",295526,73,cloze,
1648,Main,,,SP,Hanako,S,those mechanics,P,Filler,0.0-2.0-0.72,29,['are'],,,"Both Hanako and those mechanics %is,are% repairing the truck engine.",297526,74,cloze,
1648,Main,[],demographics,,,,,,,0.0-3.0,,"{'age': '34', 'P0_Q0': None, 'enjoy': 'An average experiment', 'gender': 'Male', 'correct': 'Yes', 'payment': 'The payment was fair', 'comments': '', 'language': 'Yes', 'education': 'Graduated college', 'other-language': 'Spanish'}",46192,,,343911,75,survey,
1648,Main,,thanks,,,,,,,0.0-4.0,,0,1660,Thank you for your time! Please click 'Continue' and then wait a moment until you're directed back to Prolific.<br><br>,,345577,76,html-button-response,
1665,Main,,irb,,,,,,,0.0-0.0,,0,2656,"<p><font size=""3"">We invite you to participate in a research study on language production and comprehension. Your experimenter will ask you to do a linguistic task such as reading sentences or words, naming pictures or describing scenes, making up sentences of your own, or participating in a simple language game. <br><br>There are no risks or benefits of any kind involved in this study. <br><br>You will be paid for your participation at the posted rate.<br><br>If you have read this form and have decided to participate in this experiment, please understand your participation is voluntary and you have the right to withdraw your consent or discontinue participation at anytime without penalty or loss of benefits to which you are otherwise entitled. You have the right to refuse to do particular tasks. Your individual privacy will be maintained in all published and written data resulting from the study. You may print this form for your records.<br><br>CONTACT INFORMATION: If you have any questions, concerns or complaints about this research study, its procedures, risks and benefits, you should contact the Protocol Director Meghan Sumner at (650)-725-9336. If you are not satisfied with how this study is being conducted, or if you have any concerns, complaints, or general questions about the research or your rights as a participant, please contact the Stanford Institutional Review Board (IRB) to speak to someone independent of the research team at (650)-723-2480 or toll free at 1-866-680-2906. You can also write to the Stanford IRB, Stanford University, 3000 El Camino Real, Five Palo Alto Square, 4th Floor, Palo Alto, CA 94306 USA.<br><br>If you agree to participate, please proceed to the study tasks.</font></p>",,2666,0,html-button-response,
1665,Main,,instructions,,,,,,,0.0-1.0,, ,6459,"In this experiment, you will read a series of sentences and will be asked to indicate the word which best completes it.<br><br><strong>Please type the word 'is' or 'are' in the blank.</strong> <br><br>If you're unsure about your choice, follow your first instinct.<br><br>When you're ready to begin, press the space bar.",,9126,1,html-keyboard-response,
1665,Main,,,SS,Alex,S,Noah,S,Critical,0.0-2.0-0.0,16,['are'],,,"Either Alex or Noah %is,are% recording the solar eclipse.",12199,2,cloze,
1665,Main,,,SS,Sarah,S,Matt,S,Critical,0.0-2.0-0.1,10,['is'],,,"Either Sarah or Matt %is,are% writing the end-of-year report.",18113,3,cloze,
1665,Main,,,P,these photographers,P,,,Filler,0.0-2.0-0.2,41,['are'],,,"These photographers %is,are% recording the solar eclipse.",19752,4,cloze,
1665,Main,,,S,Carlos,S,,,Filler,0.0-2.0-0.3,62,['is'],,,"Carlos %is,are% painting the mural.",22192,5,cloze,
1665,Main,,,SP,Brian,S,those designers,P,Critical,0.0-2.0-0.4,9,['are'],,,"Either Brian or those designers %is,are% creating the fashion collection.",26655,6,cloze,
1665,Main,,,S,Joey,S,,,Filler,0.0-2.0-0.5,70,['is'],,,"Joey %is,are% developing the game software.",29382,7,cloze,
1665,Main,,,SP,Lisa,S,those children,P,Filler,0.0-2.0-0.6,30,['are'],,,"Both Lisa and those children %is,are% preparing dinner.",40336,8,cloze,
1665,Main,,,SS,John,S,Mary,S,Critical,0.0-2.0-0.7,1,['is'],,,"Either John or Mary %is,are% interviewing the movie star.",43163,9,cloze,
1665,Main,,,PS,these research assistants,P,Fatima,S,Filler,0.0-2.0-0.8,32,['are'],,,"Both these research assistants and Fatima %is,are% conducting the experiments.",45528,10,cloze,
1665,Main,,,P,those volunteers,P,,,Filler,0.0-2.0-0.9,45,['are'],,,"Those volunteers %is,are% sorting the books.",47133,11,cloze,
1665,Main,,,PP,those babysitters,P,those parents,P,Critical,0.0-2.0-0.10,24,['are'],,,"Either those babysitters or those parents %is,are% taking care of the babies.",51700,12,cloze,
1665,Main,,,SS,Krishna,S,Amir,S,Filler,0.0-2.0-0.11,37,['are'],,,"Both Krishna and Amir %is,are% analyzing the market trends.",53370,13,cloze,
1665,Main,,,P,those farmers,P,,,Filler,0.0-2.0-0.12,47,['are'],,,"Those farmers %is,are% tending to the crops.",54761,14,cloze,
1665,Main,,,P,those nurses,P,,,Filler,0.0-2.0-0.13,42,['are'],,,"Those nurses %is,are% attending to the patients.",56194,15,cloze,
1665,Main,,,PS,those athletes,P,Ellen,S,Critical,0.0-2.0-0.14,23,['are'],,,"Either those athletes or Ellen %is,are% working out at the gym.",59355,16,cloze,
1665,Main,,,PP,those gardeners,P,those farmers,P,Critical,0.0-2.0-0.15,22,['are'],,,"Either those gardeners or those farmers %is,are% tending to the crops.",61310,17,cloze,
1665,Main,,,P,those lawyers,P,,,Filler,0.0-2.0-0.16,40,['are'],,,"Those lawyers %is,are% handling the legal documents.",63156,18,cloze,
1665,Main,,,P,those athletes,P,,,Filler,0.0-2.0-0.17,48,['are'],,,"Those athletes %is,are% working out at the gym.",64660,19,cloze,
1665,Main,,,SS,Mateo,S,Lin,S,Critical,0.0-2.0-0.18,13,['is'],,,"Either Mateo or Lin %is,are% designing the building's layout.",67583,20,cloze,
1665,Main,,,PP,the team of police officers,P,those detectives,P,Critical,0.0-2.0-0.19,3,['are'],,,"Either the team of police officers or those detectives %is,are% investigating the crime scene.",71268,21,cloze,
1665,Main,,,P,those parents,P,,,Filler,0.0-2.0-0.20,49,['are'],,,"Those parents %is,are% taking care of the babies.",72876,22,cloze,
1665,Main,,,S,Hasan,S,,,Filler,0.0-2.0-0.21,65,['is'],,,"Hasan %is,are% decorating the gallery.",75124,23,cloze,
1665,Main,,,S,Hank,S,,,Filler,0.0-2.0-0.22,73,['is'],,,"Hank %is,are% constructing the playground.",77566,24,cloze,
1665,Main,,,S,Andy,S,,,Filler,0.0-2.0-0.23,69,['is'],,,"Andy %is,are% capturing the wildlife in photographs.",80394,25,cloze,
1665,Main,,,S,Jimmy,S,,,Filler,0.0-2.0-0.24,61,['is'],,,"Jimmy %is,are% fertilizing the fields.",82383,26,cloze,
1665,Main,,,PP,these engineers,P,those electricians,P,Critical,0.0-2.0-0.25,8,['are'],,,"Either these engineers or those electricians %is,are% fixing the wiring issues.",84995,27,cloze,
1665,Main,,,SP,Hossein,S,those illustrators,P,Critical,0.0-2.0-0.26,25,['are'],,,"Either Hossein or those illustrators %is,are% sketching the concept art.",87217,28,cloze,
1665,Main,,,SS,Sarah,S,Matt,S,Filler,0.0-2.0-0.27,35,['are'],,,"Both Sarah and Matt %is,are% writing the end-of-year report.",89128,29,cloze,
1665,Main,,,P,those tailors,P,,,Filler,0.0-2.0-0.28,44,['are'],,,"Those tailors %is,are% sewing the dresses.",91469,30,cloze,
1665,Main,,,S,Bill,S,,,Filler,0.0-2.0-0.29,59,['is'],,,"Bill %is,are% planning the conference.",93845,31,cloze,
1665,Main,,,S,Kim,S,,,Filler,0.0-2.0-0.30,60,['is'],,,"Kim %is,are% cataloging the library collection.",95983,32,cloze,
1665,Main,,,PS,those students,P,William,S,Critical,0.0-2.0-0.31,2,['are'],,,"Either those students or William %is,are% drafting the important email.",100565,33,cloze,
1665,Main,,,PS,those designers,P,Brian,S,Filler,0.0-2.0-0.32,34,['are'],,,"Both those designers and Brian %is,are% creating the fashion collection.",102879,34,cloze,
1665,Main,,,SS,Zeynab,S,Emma,S,Critical,0.0-2.0-0.33,14,['is'],,,"Either Zeynab or Emma %is,are% proofreading the manuscripts.",107511,35,cloze,
1665,Main,,,SP,Lisa,S,those children,P,Critical,0.0-2.0-0.34,5,['are'],,,"Either Lisa or those children %is,are% preparing dinner.",112208,36,cloze,
1665,Main,,,SS,Bill,S,Kim,S,Critical,0.0-2.0-0.35,17,['is'],,,"Either Bill or Kim %is,are% attending to the patients.",116443,37,cloze,
1665,Main,,,S,Noah,S,,,Filler,0.0-2.0-0.36,57,['is'],,,"Noah %is,are% servicing the air conditioning units.",119102,38,cloze,
1665,Main,,,SP,David,S,those plumbers,P,Filler,0.0-2.0-0.37,31,['are'],,,"Both David and those plumbers %is,are% fixing the leaking pipe.",124940,39,cloze,
1665,Main,,,PP,those police officers,P,those detectives,P,Filler,0.0-2.0-0.38,28,['are'],,,"Both those police officers and those detectives %is,are% investigating the crime scene.",127150,40,cloze,
1665,Main,,,S,Peter,S,,,Filler,0.0-2.0-0.39,56,['is'],,,"Peter %is,are% composing the annual report.",129725,41,cloze,
1665,Main,,,PP,those administrators,P,these teachers,P,Critical,0.0-2.0-0.40,11,['are'],,,"Either those administrators or these teachers %is,are% making the admission decisions.",131963,42,cloze,
1665,Main,,,S,Zeynab,S,,,Filler,0.0-2.0-0.41,54,['is'],,,"Zeynab %is,are% caring for the garden.",134977,43,cloze,
1665,Main,,,SP,Hasan,S,those volunteers,P,Critical,0.0-2.0-0.42,20,['are'],,,"Either Hasan or those volunteers %is,are% sorting the books.",137157,44,cloze,
1665,Main,,,P,those painters,P,,,Filler,0.0-2.0-0.43,46,['are'],,,"Those painters %is,are% using the art studio.",139127,45,cloze,
1665,Main,,,SS,Juan,S,Antonio,S,Filler,0.0-2.0-0.44,36,['are'],,,"Both Juan and Antonio %is,are% making the admission decisions.",141518,46,cloze,
1665,Main,,,SP,Hanako,S,those mechanics,P,Critical,0.0-2.0-0.45,4,['are'],,,"Either Hanako or those mechanics %is,are% repairing the truck engine.",144254,47,cloze,
1665,Main,,,PS,those plumbers,P,David,S,Critical,0.0-2.0-0.46,6,['are'],,,"Either those plumbers or David %is,are% fixing the leaking pipe.",146286,48,cloze,
1665,Main,,,PS,those painters,P,Lydia,S,Critical,0.0-2.0-0.47,21,['is'],,,"Either those painters or Lydia %is,are% using the art studio.",150372,49,cloze,
1665,Main,,,PP,those carpenters,P,those kids,P,Critical,0.0-2.0-0.48,18,['are'],,,"Either those carpenters or those kids %is,are% building the tree house.",152537,50,cloze,
1665,Main,,,S,Emma,S,,,Filler,0.0-2.0-0.49,55,['is'],,,"Emma %is,are% resolving the network issues",154737,51,cloze,
1665,Main,,,S,Lydia,S,,,Filler,0.0-2.0-0.50,67,['is'],,,"Lydia %is,are% tailoring the costumes.",157178,52,cloze,
1665,Main,,,S,Liam,S,,,Filler,0.0-2.0-0.51,68,['is'],,,"Liam %is,are% solving the mystery case.",159154,53,cloze,
1665,Main,,,SP,Hanako,S,those mechanics,P,Filler,0.0-2.0-0.52,29,['are'],,,"Both Hanako and those mechanics %is,are% repairing the truck engine.",162111,54,cloze,
1665,Main,,,S,Alex,S,,,Filler,0.0-2.0-0.53,58,['is'],,,"Alex %is,are% installing the security system.",164336,55,cloze,
1665,Main,,,PP,these paralegals,P,those lawyers,P,Critical,0.0-2.0-0.54,15,['are'],,,"Either these paralegals or those lawyers %is,are% handling the legal documents.",166319,56,cloze,
1665,Main,,,PS,those statisticians,P,Krishna,S,Critical,0.0-2.0-0.55,12,['are'],,,"Either those statisticians or Krishna %is,are% analyzing the market trends.",168789,57,cloze,
1665,Main,,,PP,these professors,P,those students,P,Filler,0.0-2.0-0.56,27,['are'],,,"Both these professors and those students %is,are% drafting the important email.",170934,58,cloze,
1665,Main,,,S,Ali,S,,,Filler,0.0-2.0-0.57,72,['is'],,,"Ali %is,are% cooking the festive meal.",173509,59,cloze,
1665,Main,,,S,Yuki,S,,,Filler,0.0-2.0-0.58,66,['is'],,,"Yuki %is,are% evaluating the scholarship applications.",176121,60,cloze,
1665,Main,,,P,these architects,P,,,Filler,0.0-2.0-0.59,38,['are'],,,"These architects %is,are% designing the building's layout.",178940,61,cloze,
1665,Main,,,PP,these girls,P,those boys,P,Filler,0.0-2.0-0.60,26,['are'],,,"Both these girls and those boys %is,are% interviewing the movie star.",184009,62,cloze,
1665,Main,,,PP,these fashion designers,P,those tailors,P,Critical,0.0-2.0-0.61,19,['are'],,,"Either these fashion designers or those tailors %is,are% sewing the dresses.",186712,63,cloze,
1665,Main,,,P,those kids,P,,,Filler,0.0-2.0-0.62,43,['are'],,,"Those kids %is,are% building the tree house.",188415,64,cloze,
1665,Main,,,S,Ellen,S,,,Filler,0.0-2.0-0.63,71,['is'],,,"Ellen %is,are% renovating the historic building.",190957,65,cloze,
1665,Main,,,S,Elias,S,,,Filler,0.0-2.0-0.64,52,['is'],,,"Elias %is,are% leading the scientific research.",193205,66,cloze,
1665,Main,,,PS,those electricians,P,Melissa,S,Filler,0.0-2.0-0.65,33,['are'],,,"Both those electricians and Melissa %is,are% fixing the wiring issues.",198148,67,cloze,
1665,Main,,,S,Lin,S,,,Filler,0.0-2.0-0.66,51,['is'],,,"Lin %is,are% reviewing the project proposals.",200627,68,cloze,
1665,Main,,,S,Pedro,S,,,Filler,0.0-2.0-0.67,53,['is'],,,"Pedro %is,are% editing the academic journal.",202592,69,cloze,
1665,Main,,,S,Mateo,S,,,Filler,0.0-2.0-0.68,50,['is'],,,"Mateo %is,are% organizing the charity event.",204711,70,cloze,
1665,Main,,,S,Maria,S,,,Filler,0.0-2.0-0.69,64,['is'],,,"Maria %is,are% producing the documentary film.",206886,71,cloze,
1665,Main,,,S,Thomas,S,,,Filler,0.0-2.0-0.70,63,['is'],,,"Thomas %is,are% training at the sports center.",208732,72,cloze,
1665,Main,,,P,those editors,P,,,Filler,0.0-2.0-0.71,39,['are'],,,"Those editors %is,are% proofreading the manuscripts.",210749,73,cloze,
1665,Main,,,SP,Fatima,S,these research assistants,P,Critical,0.0-2.0-0.72,7,['are'],,,"Either Fatima or these research assistants %is,are% conducting the experiments.",213443,74,cloze,
1665,Main,[],demographics,,,,,,,0.0-3.0,,"{'age': '31', 'P0_Q0': None, 'enjoy': 'An average experiment', 'gender': 'Male', 'correct': 'Yes', 'payment': 'The payment was fair', 'comments': '', 'language': 'Yes', 'education': 'Graduated high school', 'other-language': ''}",13142,,,226661,75,survey,
1665,Main,,thanks,,,,,,,0.0-4.0,,0,918,Thank you for your time! Please click 'Continue' and then wait a moment until you're directed back to Prolific.<br><br>,,227581,76,html-button-response,
1643,Main,,irb,,,,,,,0.0-0.0,,0,165969,"<p><font size=""3"">We invite you to participate in a research study on language production and comprehension. Your experimenter will ask you to do a linguistic task such as reading sentences or words, naming pictures or describing scenes, making up sentences of your own, or participating in a simple language game. <br><br>There are no risks or benefits of any kind involved in this study. <br><br>You will be paid for your participation at the posted rate.<br><br>If you have read this form and have decided to participate in this experiment, please understand your participation is voluntary and you have the right to withdraw your consent or discontinue participation at anytime without penalty or loss of benefits to which you are otherwise entitled. You have the right to refuse to do particular tasks. Your individual privacy will be maintained in all published and written data resulting from the study. You may print this form for your records.<br><br>CONTACT INFORMATION: If you have any questions, concerns or complaints about this research study, its procedures, risks and benefits, you should contact the Protocol Director Meghan Sumner at (650)-725-9336. If you are not satisfied with how this study is being conducted, or if you have any concerns, complaints, or general questions about the research or your rights as a participant, please contact the Stanford Institutional Review Board (IRB) to speak to someone independent of the research team at (650)-723-2480 or toll free at 1-866-680-2906. You can also write to the Stanford IRB, Stanford University, 3000 El Camino Real, Five Palo Alto Square, 4th Floor, Palo Alto, CA 94306 USA.<br><br>If you agree to participate, please proceed to the study tasks.</font></p>",,165987,0,html-button-response,
1643,Main,,instructions,,,,,,,0.0-1.0,, ,19184,"In this experiment, you will read a series of sentences and will be asked to indicate the word which best completes it.<br><br><strong>Please type the word 'is' or 'are' in the blank.</strong> <br><br>If you're unsure about your choice, follow your first instinct.<br><br>When you're ready to begin, press the space bar.",,185175,1,html-keyboard-response,
1643,Main,,,S,Lydia,S,,,Filler,0.0-2.0-0.0,67,['is'],,,"Lydia %is,are% tailoring the costumes.",190993,2,cloze,
1643,Main,,,PS,these research assistants,P,Fatima,S,Filler,0.0-2.0-0.1,32,['are'],,,"Both these research assistants and Fatima %is,are% conducting the experiments.",202025,3,cloze,
1643,Main,,,SP,Hanako,S,those mechanics,P,Filler,0.0-2.0-0.2,29,['are'],,,"Both Hanako and those mechanics %is,are% repairing the truck engine.",210788,4,cloze,
1643,Main,,,SS,Hank,S,Pedro,S,Critical,0.0-2.0-0.3,24,['is'],,,"Either Hank or Pedro %is,are% taking care of the babies.",217171,5,cloze,
1643,Main,,,SS,Krishna,S,Amir,S,Filler,0.0-2.0-0.4,37,['are'],,,"Both Krishna and Amir %is,are% analyzing the market trends.",221933,6,cloze,
1643,Main,,,SS,Peter,S,Noah,S,Critical,0.0-2.0-0.5,15,['is'],,,"Either Peter or Noah %is,are% handling the legal documents.",226061,7,cloze,
1643,Main,,,P,those parents,P,,,Filler,0.0-2.0-0.6,49,['are'],,,"Those parents %is,are% taking care of the babies.",231503,8,cloze,
1643,Main,,,S,Yuki,S,,,Filler,0.0-2.0-0.7,66,['is'],,,"Yuki %is,are% evaluating the scholarship applications.",236491,9,cloze,
1643,Main,,,SS,Sarah,S,Matt,S,Filler,0.0-2.0-0.8,35,['are'],,,"Both Sarah and Matt %is,are% writing the end-of-year report.",240000,10,cloze,
1643,Main,,,PP,these girls,P,those boys,P,Filler,0.0-2.0-0.9,26,['are'],,,"Both these girls and those boys %is,are% interviewing the movie star.",245828,11,cloze,
1643,Main,,,PS,those designers,P,Brian,S,Filler,0.0-2.0-0.10,34,['are'],,,"Both those designers and Brian %is,are% creating the fashion collection.",251024,12,cloze,
1643,Main,,,PS,these research assistants,P,Fatima,S,Critical,0.0-2.0-0.11,7,['is'],,,"Either these research assistants or Fatima %is,are% conducting the experiments.",257150,13,cloze,
1643,Main,,,SP,Jimmy,S,those kids,P,Critical,0.0-2.0-0.12,18,['are'],,,"Either Jimmy or those kids %is,are% building the tree house.",269996,14,cloze,
1643,Main,,,S,Maria,S,,,Filler,0.0-2.0-0.13,64,['is'],,,"Maria %is,are% producing the documentary film.",273836,15,cloze,
1643,Main,,,PP,those police officers,P,those detectives,P,Filler,0.0-2.0-0.14,28,['are'],,,"Both those police officers and those detectives %is,are% investigating the crime scene.",296543,16,cloze,
1643,Main,,,PS,these architects,P,Mateo,S,Critical,0.0-2.0-0.15,13,['is'],,,"Either these architects or Mateo %is,are% designing the building's layout.",307017,17,cloze,
1643,Main,,,SP,William,S,those students,P,Critical,0.0-2.0-0.16,2,['are'],,,"Either William or those students %is,are% drafting the important email.",317637,18,cloze,
1643,Main,,,P,those editors,P,,,Filler,0.0-2.0-0.17,39,['are'],,,"Those editors %is,are% proofreading the manuscripts.",321371,19,cloze,
1643,Main,,,S,Carlos,S,,,Filler,0.0-2.0-0.18,62,['is'],,,"Carlos %is,are% painting the mural.",324705,20,cloze,
1643,Main,,,S,Liam,S,,,Filler,0.0-2.0-0.19,68,['is'],,,"Liam %is,are% solving the mystery case.",329874,21,cloze,
1643,Main,,,PS,those painters,P,Lydia,S,Critical,0.0-2.0-0.20,21,['is'],,,"Either those painters or Lydia %is,are% using the art studio.",336020,22,cloze,
1643,Main,,,S,Lin,S,,,Filler,0.0-2.0-0.21,51,['is'],,,"Lin %is,are% reviewing the project proposals.",340586,23,cloze,
1643,Main,,,S,Joey,S,,,Filler,0.0-2.0-0.22,70,['is'],,,"Joey %is,are% developing the game software.",344614,24,cloze,
1643,Main,,,SS,Lisa,S,George,S,Critical,0.0-2.0-0.23,5,['is'],,,"Either Lisa or George %is,are% preparing dinner.",350678,25,cloze,
1643,Main,,,P,those nurses,P,,,Filler,0.0-2.0-0.24,42,['are'],,,"Those nurses %is,are% attending to the patients.",353972,26,cloze,
1643,Main,,,P,these architects,P,,,Filler,0.0-2.0-0.25,38,['are'],,,"These architects %is,are% designing the building's layout.",358393,27,cloze,
1643,Main,,,SP,Lisa,S,those children,P,Filler,0.0-2.0-0.26,30,['are'],,,"Both Lisa and those children %is,are% preparing dinner.",362735,28,cloze,
1643,Main,,,PS,those electricians,P,Melissa,S,Filler,0.0-2.0-0.27,33,['are'],,,"Both those electricians and Melissa %is,are% fixing the wiring issues.",367474,29,cloze,
1643,Main,,,SP,Ellen,S,those athletes,P,Critical,0.0-2.0-0.28,23,['is'],,,"Either Ellen or those athletes %is,are% working out at the gym.",378063,30,cloze,
1643,Main,,,P,those volunteers,P,,,Filler,0.0-2.0-0.29,45,['are'],,,"Those volunteers %is,are% sorting the books.",381603,31,cloze,
1643,Main,,,PP,those art students,P,those illustrators,P,Critical,0.0-2.0-0.30,25,['are'],,,"Either those art students or those illustrators %is,are% sketching the concept art.",397030,32,cloze,
