workerid,proliferate.condition,accuracy,category,cond,conj1,conj1_num,conj2,conj2_num,dataType,internal_node_id,item,response,rt,stimulus,text,time_elapsed,trial_index,trial_type,error
1752,Main,,irb,,,,,,,0.0-0.0,,0,18205,"<p><font size=""3"">We invite you to participate in a research study on language production and comprehension. Your experimenter will ask you to do a linguistic task such as reading sentences or words, naming pictures or describing scenes, making up sentences of your own, or participating in a simple language game. <br><br>There are no risks or benefits of any kind involved in this study. <br><br>You will be paid for your participation at the posted rate.<br><br>If you have read this form and have decided to participate in this experiment, please understand your participation is voluntary and you have the right to withdraw your consent or discontinue participation at anytime without penalty or loss of benefits to which you are otherwise entitled. You have the right to refuse to do particular tasks. Your individual privacy will be maintained in all published and written data resulting from the study. You may print this form for your records.<br><br>CONTACT INFORMATION: If you have any questions, concerns or complaints about this research study, its procedures, risks and benefits, you should contact the Protocol Director Meghan Sumner at (650)-725-9336. If you are not satisfied with how this study is being conducted, or if you have any concerns, complaints, or general questions about the research or your rights as a participant, please contact the Stanford Institutional Review Board (IRB) to speak to someone independent of the research team at (650)-723-2480 or toll free at 1-866-680-2906. You can also write to the Stanford IRB, Stanford University, 3000 El Camino Real, Five Palo Alto Square, 4th Floor, Palo Alto, CA 94306 USA.<br><br>If you agree to participate, please proceed to the study tasks.</font></p>",,18213,0,html-button-response,
1752,Main,,instructions,,,,,,,0.0-1.0,, ,28627,"In this experiment, you will read a series of sentences and will be asked to indicate the word which best completes it.<br><br><strong>Please type the word 'is' or 'are' in the blank.</strong> <br><br>If you're unsure about your choice, follow your first instinct.<br><br>When you're ready to begin, press the space bar.",,46840,1,html-keyboard-response,
1752,Main,,,PS,these architects,P,Mateo,S,Critical,0.0-2.0-0.0,13,['are'],,,"Either these architects or Mateo %is,are% designing the building's layout.",70953,2,cloze,
1752,Main,,,SP,Hank,S,those parents,P,Critical,0.0-2.0-0.1,24,['are'],,,"Either Hank or those parents %is,are% taking care of the babies.",77673,3,cloze,
1752,Main,,,PP,these girls,P,those boys,P,Filler,0.0-2.0-0.2,26,['are'],,,"Both these girls and those boys %is,are% interviewing the movie star.",85352,4,cloze,
1752,Main,,,S,Hasan,S,,,Filler,0.0-2.0-0.3,65,['is'],,,"Hasan %is,are% decorating the gallery.",90055,5,cloze,
1752,Main,,,S,Pedro,S,,,Filler,0.0-2.0-0.4,53,['is'],,,"Pedro %is,are% editing the academic journal.",94609,6,cloze,
1752,Main,,,S,Mateo,S,,,Filler,0.0-2.0-0.5,50,['is'],,,"Mateo %is,are% organizing the charity event.",99484,7,cloze,
1752,Main,,,PS,those volunteers,P,Hasan,S,Critical,0.0-2.0-0.6,20,['are'],,,"Either those volunteers or Hasan %is,are% sorting the books.",104389,8,cloze,
1752,Main,,,P,those athletes,P,,,Filler,0.0-2.0-0.7,48,['are'],,,"Those athletes %is,are% working out at the gym.",108468,9,cloze,
1752,Main,,,P,those volunteers,P,,,Filler,0.0-2.0-0.8,45,['are'],,,"Those volunteers %is,are% sorting the books.",112182,10,cloze,
1752,Main,,,PS,these research assistants,P,Fatima,S,Filler,0.0-2.0-0.9,32,['are'],,,"Both these research assistants and Fatima %is,are% conducting the experiments.",119966,11,cloze,
1752,Main,,,SP,Lisa,S,those children,P,Filler,0.0-2.0-0.10,30,['are'],,,"Both Lisa and those children %is,are% preparing dinner.",124123,12,cloze,
1752,Main,,,PS,those students,P,William,S,Critical,0.0-2.0-0.11,2,['are'],,,"Either those students or William %is,are% drafting the important email.",129748,13,cloze,
1752,Main,,,PP,those police officers,P,those detectives,P,Filler,0.0-2.0-0.12,28,['are'],,,"Both those police officers and those detectives %is,are% investigating the crime scene.",134789,14,cloze,
1752,Main,,,PS,those designers,P,Brian,S,Filler,0.0-2.0-0.13,34,['are'],,,"Both those designers and Brian %is,are% creating the fashion collection.",139386,15,cloze,
1752,Main,,,S,Alex,S,,,Filler,0.0-2.0-0.14,58,['is'],,,"Alex %is,are% installing the security system.",143346,16,cloze,
1752,Main,,,S,Lin,S,,,Filler,0.0-2.0-0.15,51,['is'],,,"Lin %is,are% reviewing the project proposals.",146511,17,cloze,
1752,Main,,,SP,Lisa,S,those children,P,Critical,0.0-2.0-0.16,5,['are'],,,"Either Lisa or those children %is,are% preparing dinner.",150742,18,cloze,
1752,Main,,,PS,those electricians,P,Melissa,S,Filler,0.0-2.0-0.17,33,['are'],,,"Both those electricians and Melissa %is,are% fixing the wiring issues.",156479,19,cloze,
1752,Main,,,S,Jimmy,S,,,Filler,0.0-2.0-0.18,61,['is'],,,"Jimmy %is,are% fertilizing the fields.",159869,20,cloze,
1752,Main,,,SS,Harry,S,Ahmad,S,Critical,0.0-2.0-0.19,3,['are'],,,"Either Harry or Ahmad %is,are% investigating the crime scene.",168600,21,cloze,
1752,Main,,,S,Ellen,S,,,Filler,0.0-2.0-0.20,71,['is'],,,"Ellen %is,are% renovating the historic building.",172590,22,cloze,
1752,Main,,,S,Ali,S,,,Filler,0.0-2.0-0.21,72,['is'],,,"Ali %is,are% cooking the festive meal.",176220,23,cloze,
1752,Main,,,P,those kids,P,,,Filler,0.0-2.0-0.22,43,['are'],,,"Those kids %is,are% building the tree house.",179265,24,cloze,
1752,Main,,,P,those tailors,P,,,Filler,0.0-2.0-0.23,44,['are'],,,"Those tailors %is,are% sewing the dresses.",183015,25,cloze,
1752,Main,,,S,Joey,S,,,Filler,0.0-2.0-0.24,70,['is'],,,"Joey %is,are% developing the game software.",186368,26,cloze,
1752,Main,,,S,Zeynab,S,,,Filler,0.0-2.0-0.25,54,['is'],,,"Zeynab %is,are% caring for the garden.",189638,27,cloze,
1752,Main,,,SS,Bill,S,Kim,S,Critical,0.0-2.0-0.26,17,['is'],,,"Either Bill or Kim %is,are% attending to the patients.",207076,28,cloze,
1752,Main,,,S,Kim,S,,,Filler,0.0-2.0-0.27,60,['is'],,,"Kim %is,are% cataloging the library collection.",210099,29,cloze,
1752,Main,,,S,Noah,S,,,Filler,0.0-2.0-0.28,57,['is'],,,"Noah %is,are% servicing the air conditioning units.",213068,30,cloze,
1752,Main,,,PP,these professors,P,those students,P,Filler,0.0-2.0-0.29,27,['are'],,,"Both these professors and those students %is,are% drafting the important email.",218416,31,cloze,
1752,Main,,,SS,Sarah,S,Matt,S,Filler,0.0-2.0-0.30,35,['are'],,,"Both Sarah and Matt %is,are% writing the end-of-year report.",222556,32,cloze,
1752,Main,,,PP,those administrators,P,these teachers,P,Critical,0.0-2.0-0.31,11,['are'],,,"Either those administrators or these teachers %is,are% making the admission decisions.",234407,33,cloze,
1752,Main,,,SS,Peter,S,Noah,S,Critical,0.0-2.0-0.32,15,['are'],,,"Either Peter or Noah %is,are% handling the legal documents.",262862,34,cloze,
1752,Main,,,SS,Hanako,S,George,S,Critical,0.0-2.0-0.33,4,['is'],,,"Either Hanako or George %is,are% repairing the truck engine.",270850,35,cloze,
1752,Main,,,PP,those secretaries,P,those editors,P,Critical,0.0-2.0-0.34,14,['are'],,,"Either those secretaries or those editors %is,are% proofreading the manuscripts.",279956,36,cloze,
1752,Main,,,P,those lawyers,P,,,Filler,0.0-2.0-0.35,40,['are'],,,"Those lawyers %is,are% handling the legal documents.",283789,37,cloze,
1752,Main,,,SS,Juan,S,Antonio,S,Filler,0.0-2.0-0.36,36,['are'],,,"Both Juan and Antonio %is,are% making the admission decisions.",301077,38,cloze,
1752,Main,,,S,Carlos,S,,,Filler,0.0-2.0-0.37,62,['is'],,,"Carlos %is,are% painting the mural.",305089,39,cloze,
1752,Main,,,S,Hank,S,,,Filler,0.0-2.0-0.38,73,['is'],,,"Hank %is,are% constructing the playground.",308030,40,cloze,
1752,Main,,,SP,Hanako,S,those mechanics,P,Filler,0.0-2.0-0.39,29,['are'],,,"Both Hanako and those mechanics %is,are% repairing the truck engine.",316039,41,cloze,
1752,Main,,,S,Maria,S,,,Filler,0.0-2.0-0.40,64,['is'],,,"Maria %is,are% producing the documentary film.",320389,42,cloze,
1752,Main,,,SP,David,S,those plumbers,P,Filler,0.0-2.0-0.41,31,['are'],,,"Both David and those plumbers %is,are% fixing the leaking pipe.",325040,43,cloze,
1752,Main,,,S,Emma,S,,,Filler,0.0-2.0-0.42,55,['is'],,,"Emma %is,are% resolving the network issues",328317,44,cloze,
1752,Main,,,SS,Fatima,S,Lucas,S,Critical,0.0-2.0-0.43,7,['is'],,,"Either Fatima or Lucas %is,are% conducting the experiments.",346948,45,cloze,
1752,Main,,,P,those parents,P,,,Filler,0.0-2.0-0.44,49,['are'],,,"Those parents %is,are% taking care of the babies.",350105,46,cloze,
1752,Main,,,P,those farmers,P,,,Filler,0.0-2.0-0.45,47,['are'],,,"Those farmers %is,are% tending to the crops.",353286,47,cloze,
1752,Main,,,PP,those art students,P,those illustrators,P,Critical,0.0-2.0-0.46,25,['are'],,,"Either those art students or those illustrators %is,are% sketching the concept art.",370079,48,cloze,
1752,Main,,,PP,those gardeners,P,those farmers,P,Critical,0.0-2.0-0.47,22,['are'],,,"Either those gardeners or those farmers %is,are% tending to the crops.",391147,49,cloze,
1752,Main,,,P,those painters,P,,,Filler,0.0-2.0-0.48,46,['are'],,,"Those painters %is,are% using the art studio.",394447,50,cloze,
1752,Main,,,S,Thomas,S,,,Filler,0.0-2.0-0.49,63,['is'],,,"Thomas %is,are% training at the sports center.",397965,51,cloze,
1752,Main,,,S,Peter,S,,,Filler,0.0-2.0-0.50,56,['is'],,,"Peter %is,are% composing the annual report.",401033,52,cloze,
1752,Main,,,S,Bill,S,,,Filler,0.0-2.0-0.51,59,['is'],,,"Bill %is,are% planning the conference.",403897,53,cloze,
1752,Main,,,PS,those painters,P,Lydia,S,Critical,0.0-2.0-0.52,21,['is'],,,"Either those painters or Lydia %is,are% using the art studio.",419956,54,cloze,
1752,Main,,,SP,Ellen,S,those athletes,P,Critical,0.0-2.0-0.53,23,['are'],,,"Either Ellen or those athletes %is,are% working out at the gym.",424118,55,cloze,
1752,Main,,,PS,these photographers,P,Alex,S,Critical,0.0-2.0-0.54,16,['is'],,,"Either these photographers or Alex %is,are% recording the solar eclipse.",431071,56,cloze,
1752,Main,,,PS,those staff members,P,Sarah,S,Critical,0.0-2.0-0.55,10,['is'],,,"Either those staff members or Sarah %is,are% writing the end-of-year report.",434837,57,cloze,
1752,Main,,,SS,David,S,Joan,S,Critical,0.0-2.0-0.56,6,['is'],,,"Either David or Joan %is,are% fixing the leaking pipe.",441339,58,cloze,
1752,Main,,,S,Elias,S,,,Filler,0.0-2.0-0.57,52,['is'],,,"Elias %is,are% leading the scientific research.",444444,59,cloze,
1752,Main,,,PP,those economists,P,those statisticians,P,Critical,0.0-2.0-0.58,12,['are'],,,"Either those economists or those statisticians %is,are% analyzing the market trends.",448592,60,cloze,
1752,Main,,,S,Yuki,S,,,Filler,0.0-2.0-0.59,66,['is'],,,"Yuki %is,are% evaluating the scholarship applications.",451562,61,cloze,
1752,Main,,,P,these architects,P,,,Filler,0.0-2.0-0.60,38,['are'],,,"These architects %is,are% designing the building's layout.",454675,62,cloze,
1752,Main,,,P,those nurses,P,,,Filler,0.0-2.0-0.61,42,['are'],,,"Those nurses %is,are% attending to the patients.",457945,63,cloze,
1752,Main,,,SS,Melissa,S,Patrick,S,Critical,0.0-2.0-0.62,8,['is'],,,"Either Melissa or Patrick %is,are% fixing the wiring issues.",461621,64,cloze,
1752,Main,,,SP,Jimmy,S,those kids,P,Critical,0.0-2.0-0.63,18,['are'],,,"Either Jimmy or those kids %is,are% building the tree house.",464830,65,cloze,
1752,Main,,,S,Liam,S,,,Filler,0.0-2.0-0.64,68,['is'],,,"Liam %is,are% solving the mystery case.",467597,66,cloze,
1752,Main,,,SS,Krishna,S,Amir,S,Filler,0.0-2.0-0.65,37,['are'],,,"Both Krishna and Amir %is,are% analyzing the market trends.",472832,67,cloze,
1752,Main,,,PP,these stylists,P,those designers,P,Critical,0.0-2.0-0.66,9,['are'],,,"Either these stylists or those designers %is,are% creating the fashion collection.",477565,68,cloze,
1752,Main,,,PS,those tailors,P,Thomas,S,Critical,0.0-2.0-0.67,19,['is'],,,"Either those tailors or Thomas %is,are% sewing the dresses.",483760,69,cloze,
1752,Main,,,P,these photographers,P,,,Filler,0.0-2.0-0.68,41,['are'],,,"These photographers %is,are% recording the solar eclipse.",487869,70,cloze,
1752,Main,,,P,those editors,P,,,Filler,0.0-2.0-0.69,39,['are'],,,"Those editors %is,are% proofreading the manuscripts.",490741,71,cloze,
1752,Main,,,S,Lydia,S,,,Filler,0.0-2.0-0.70,67,['is'],,,"Lydia %is,are% tailoring the costumes.",493569,72,cloze,
1752,Main,,,S,Andy,S,,,Filler,0.0-2.0-0.71,69,['is'],,,"Andy %is,are% capturing the wildlife in photographs.",496179,73,cloze,
1752,Main,,,PP,these girls,P,those boys,P,Critical,0.0-2.0-0.72,1,['are'],,,"Either these girls or those boys %is,are% interviewing the movie star.",499329,74,cloze,
1752,Main,[],demographics,,,,,,,0.0-3.0,,"{'age': '40', 'P0_Q0': None, 'enjoy': 'An average experiment', 'gender': 'Female', 'correct': 'Yes', 'payment': 'The payment was fair', 'comments': '', 'language': 'Yes', 'education': 'Graduated college', 'other-language': ''}",32168,,,531552,75,survey,
1752,Main,,thanks,,,,,,,0.0-4.0,,0,2157,Thank you for your time! Please click 'Continue' and then wait a moment until you're directed back to Prolific.<br><br>,,533711,76,html-button-response,
1786,Main,,irb,,,,,,,0.0-0.0,,0,7776,"<p><font size=""3"">We invite you to participate in a research study on language production and comprehension. Your experimenter will ask you to do a linguistic task such as reading sentences or words, naming pictures or describing scenes, making up sentences of your own, or participating in a simple language game. <br><br>There are no risks or benefits of any kind involved in this study. <br><br>You will be paid for your participation at the posted rate.<br><br>If you have read this form and have decided to participate in this experiment, please understand your participation is voluntary and you have the right to withdraw your consent or discontinue participation at anytime without penalty or loss of benefits to which you are otherwise entitled. You have the right to refuse to do particular tasks. Your individual privacy will be maintained in all published and written data resulting from the study. You may print this form for your records.<br><br>CONTACT INFORMATION: If you have any questions, concerns or complaints about this research study, its procedures, risks and benefits, you should contact the Protocol Director Meghan Sumner at (650)-725-9336. If you are not satisfied with how this study is being conducted, or if you have any concerns, complaints, or general questions about the research or your rights as a participant, please contact the Stanford Institutional Review Board (IRB) to speak to someone independent of the research team at (650)-723-2480 or toll free at 1-866-680-2906. You can also write to the Stanford IRB, Stanford University, 3000 El Camino Real, Five Palo Alto Square, 4th Floor, Palo Alto, CA 94306 USA.<br><br>If you agree to participate, please proceed to the study tasks.</font></p>",,7813,0,html-button-response,
1786,Main,,instructions,,,,,,,0.0-1.0,, ,24650,"In this experiment, you will read a series of sentences and will be asked to indicate the word which best completes it.<br><br><strong>Please type the word 'is' or 'are' in the blank.</strong> <br><br>If you're unsure about your choice, follow your first instinct.<br><br>When you're ready to begin, press the space bar.",,32465,1,html-keyboard-response,
1786,Main,,,PS,those editors,P,Zeynab,S,Critical,0.0-2.0-0.0,14,['are'],,,"Either those editors or Zeynab %is,are% proofreading the manuscripts.",44681,2,cloze,
1786,Main,,,P,those tailors,P,,,Filler,0.0-2.0-0.1,44,['are'],,,"Those tailors %is,are% sewing the dresses.",47913,3,cloze,
1786,Main,,,S,Bill,S,,,Filler,0.0-2.0-0.2,59,['is'],,,"Bill %is,are% planning the conference.",50778,4,cloze,
1786,Main,,,SS,Thomas,S,Maria,S,Critical,0.0-2.0-0.3,19,['are'],,,"Either Thomas or Maria %is,are% sewing the dresses.",54190,5,cloze,
1786,Main,,,S,Peter,S,,,Filler,0.0-2.0-0.4,56,['is'],,,"Peter %is,are% composing the annual report.",58227,6,cloze,
1786,Main,,,S,Emma,S,,,Filler,0.0-2.0-0.5,55,['is'],,,"Emma %is,are% resolving the network issues",61241,7,cloze,
1786,Main,,,S,Alex,S,,,Filler,0.0-2.0-0.6,58,['is'],,,"Alex %is,are% installing the security system.",65374,8,cloze,
1786,Main,,,P,those painters,P,,,Filler,0.0-2.0-0.7,46,['are'],,,"Those painters %is,are% using the art studio.",71531,9,cloze,
1786,Main,,,S,Hasan,S,,,Filler,0.0-2.0-0.8,65,['is'],,,"Hasan %is,are% decorating the gallery.",76496,10,cloze,
1786,Main,,,S,Lydia,S,,,Filler,0.0-2.0-0.9,67,['is'],,,"Lydia %is,are% tailoring the costumes.",79825,11,cloze,
1786,Main,,,SS,David,S,Joan,S,Critical,0.0-2.0-0.10,6,['are'],,,"Either David or Joan %is,are% fixing the leaking pipe.",86875,12,cloze,
1786,Main,,,SP,David,S,those plumbers,P,Filler,0.0-2.0-0.11,31,['are'],,,"Both David and those plumbers %is,are% fixing the leaking pipe.",96993,13,cloze,
1786,Main,,,S,Mateo,S,,,Filler,0.0-2.0-0.12,50,['is'],,,"Mateo %is,are% organizing the charity event.",101141,14,cloze,
1786,Main,,,S,Noah,S,,,Filler,0.0-2.0-0.13,57,['is'],,,"Noah %is,are% servicing the air conditioning units.",104050,15,cloze,
1786,Main,,,S,Maria,S,,,Filler,0.0-2.0-0.14,64,['is'],,,"Maria %is,are% producing the documentary film.",106832,16,cloze,
1786,Main,,,S,Lin,S,,,Filler,0.0-2.0-0.15,51,['is'],,,"Lin %is,are% reviewing the project proposals.",110583,17,cloze,
1786,Main,,,P,these photographers,P,,,Filler,0.0-2.0-0.16,41,['are'],,,"These photographers %is,are% recording the solar eclipse.",113275,18,cloze,
1786,Main,,,S,Andy,S,,,Filler,0.0-2.0-0.17,69,['is'],,,"Andy %is,are% capturing the wildlife in photographs.",116072,19,cloze,
1786,Main,,,P,these architects,P,,,Filler,0.0-2.0-0.18,38,['are'],,,"These architects %is,are% designing the building's layout.",118412,20,cloze,
1786,Main,,,S,Liam,S,,,Filler,0.0-2.0-0.19,68,['is'],,,"Liam %is,are% solving the mystery case.",123640,21,cloze,
1786,Main,,,S,Kim,S,,,Filler,0.0-2.0-0.20,60,['is'],,,"Kim %is,are% cataloging the library collection.",128815,22,cloze,
1786,Main,,,P,those nurses,P,,,Filler,0.0-2.0-0.21,42,['are'],,,"Those nurses %is,are% attending to the patients.",132445,23,cloze,
1786,Main,,,PP,these professors,P,those students,P,Filler,0.0-2.0-0.22,27,['are'],,,"Both these professors and those students %is,are% drafting the important email.",139591,24,cloze,
1786,Main,,,PS,those illustrators,P,Hossein,S,Critical,0.0-2.0-0.23,25,['are'],,,"Either those illustrators or Hossein %is,are% sketching the concept art.",145562,25,cloze,
1786,Main,,,S,Thomas,S,,,Filler,0.0-2.0-0.24,63,['is'],,,"Thomas %is,are% training at the sports center.",148134,26,cloze,
1786,Main,,,PS,those designers,P,Brian,S,Filler,0.0-2.0-0.25,34,['are'],,,"Both those designers and Brian %is,are% creating the fashion collection.",151231,27,cloze,
1786,Main,,,P,those volunteers,P,,,Filler,0.0-2.0-0.26,45,['are'],,,"Those volunteers %is,are% sorting the books.",153444,28,cloze,
1786,Main,,,P,those kids,P,,,Filler,0.0-2.0-0.27,43,['are'],,,"Those kids %is,are% building the tree house.",155484,29,cloze,
1786,Main,,,SP,Jimmy,S,those kids,P,Critical,0.0-2.0-0.28,18,['are'],,,"Either Jimmy or those kids %is,are% building the tree house.",158529,30,cloze,
1786,Main,,,S,Jimmy,S,,,Filler,0.0-2.0-0.29,61,['is'],,,"Jimmy %is,are% fertilizing the fields.",160711,31,cloze,
1786,Main,,,P,those parents,P,,,Filler,0.0-2.0-0.30,49,['are'],,,"Those parents %is,are% taking care of the babies.",163479,32,cloze,
1786,Main,,,SP,Brian,S,those designers,P,Critical,0.0-2.0-0.31,9,['are'],,,"Either Brian or those designers %is,are% creating the fashion collection.",167124,33,cloze,
1786,Main,,,SS,Alex,S,Noah,S,Critical,0.0-2.0-0.32,16,['is'],,,"Either Alex or Noah %is,are% recording the solar eclipse.",169996,34,cloze,
1786,Main,,,PP,those police officers,P,those detectives,P,Filler,0.0-2.0-0.33,28,['are'],,,"Both those police officers and those detectives %is,are% investigating the crime scene.",173641,35,cloze,
1786,Main,,,PS,those electricians,P,Melissa,S,Filler,0.0-2.0-0.34,33,['are'],,,"Both those electricians and Melissa %is,are% fixing the wiring issues.",180339,36,cloze,
1786,Main,,,P,those editors,P,,,Filler,0.0-2.0-0.35,39,['are'],,,"Those editors %is,are% proofreading the manuscripts.",183774,37,cloze,
1786,Main,,,PP,those administrators,P,these teachers,P,Critical,0.0-2.0-0.36,11,['are'],,,"Either those administrators or these teachers %is,are% making the admission decisions.",192128,38,cloze,
1786,Main,,,SS,Sarah,S,Matt,S,Filler,0.0-2.0-0.37,35,['are'],,,"Both Sarah and Matt %is,are% writing the end-of-year report.",195308,39,cloze,
1786,Main,,,SS,Fatima,S,Lucas,S,Critical,0.0-2.0-0.38,7,['are'],,,"Either Fatima or Lucas %is,are% conducting the experiments.",199628,40,cloze,
1786,Main,,,PP,those librarians,P,those volunteers,P,Critical,0.0-2.0-0.39,20,['are'],,,"Either those librarians or those volunteers %is,are% sorting the books.",203250,41,cloze,
1786,Main,,,SS,Lydia,S,Liam,S,Critical,0.0-2.0-0.40,21,['is'],,,"Either Lydia or Liam %is,are% using the art studio.",206370,42,cloze,
1786,Main,,,SP,Melissa,S,those electricians,P,Critical,0.0-2.0-0.41,8,['are'],,,"Either Melissa or those electricians %is,are% fixing the wiring issues.",209520,43,cloze,
1786,Main,,,PS,these research assistants,P,Fatima,S,Filler,0.0-2.0-0.42,32,['are'],,,"Both these research assistants and Fatima %is,are% conducting the experiments.",213443,44,cloze,
1786,Main,,,PP,these cooks,P,those children,P,Critical,0.0-2.0-0.43,5,['are'],,,"Either these cooks or those children %is,are% preparing dinner.",218265,45,cloze,
1786,Main,,,PP,these girls,P,those boys,P,Filler,0.0-2.0-0.44,26,['are'],,,"Both these girls and those boys %is,are% interviewing the movie star.",221257,46,cloze,
1786,Main,,,SS,Krishna,S,Amir,S,Filler,0.0-2.0-0.45,37,['are'],,,"Both Krishna and Amir %is,are% analyzing the market trends.",224063,47,cloze,
1786,Main,,,S,Hank,S,,,Filler,0.0-2.0-0.46,73,['is'],,,"Hank %is,are% constructing the playground.",231517,48,cloze,
1786,Main,,,S,Ali,S,,,Filler,0.0-2.0-0.47,72,['is'],,,"Ali %is,are% cooking the festive meal.",234832,49,cloze,
1786,Main,,,SP,Krishna,S,those statisticians,P,Critical,0.0-2.0-0.48,12,['are'],,,"Either Krishna or those statisticians %is,are% analyzing the market trends.",238942,50,cloze,
1786,Main,,,SS,William,S,Jackie,S,Critical,0.0-2.0-0.49,2,['is'],,,"Either William or Jackie %is,are% drafting the important email.",252037,51,cloze,
1786,Main,,,S,Pedro,S,,,Filler,0.0-2.0-0.50,53,['is'],,,"Pedro %is,are% editing the academic journal.",254211,52,cloze,
1786,Main,,,PP,those babysitters,P,those parents,P,Critical,0.0-2.0-0.51,24,['are'],,,"Either those babysitters or those parents %is,are% taking care of the babies.",257744,53,cloze,
1786,Main,,,SP,Peter,S,those lawyers,P,Critical,0.0-2.0-0.52,15,['are'],,,"Either Peter or those lawyers %is,are% handling the legal documents.",260512,54,cloze,
1786,Main,,,SS,Harry,S,Ahmad,S,Critical,0.0-2.0-0.53,3,['are'],,,"Either Harry or Ahmad %is,are% investigating the crime scene.",270651,55,cloze,
1786,Main,,,S,Yuki,S,,,Filler,0.0-2.0-0.54,66,['is'],,,"Yuki %is,are% evaluating the scholarship applications.",273718,56,cloze,
1786,Main,,,S,Carlos,S,,,Filler,0.0-2.0-0.55,62,['is'],,,"Carlos %is,are% painting the mural.",278932,57,cloze,
1786,Main,,,SS,Hanako,S,George,S,Critical,0.0-2.0-0.56,4,['is'],,,"Either Hanako or George %is,are% repairing the truck engine.",307994,58,cloze,
1786,Main,,,S,Ellen,S,,,Filler,0.0-2.0-0.57,71,['is'],,,"Ellen %is,are% renovating the historic building.",319220,59,cloze,
1786,Main,,,SP,John,S,those boys,P,Critical,0.0-2.0-0.58,1,['are'],,,"Either John or those boys %is,are% interviewing the movie star.",324342,60,cloze,
1786,Main,,,P,those lawyers,P,,,Filler,0.0-2.0-0.59,40,['are'],,,"Those lawyers %is,are% handling the legal documents.",326795,61,cloze,
1786,Main,,,PP,these interior designers,P,these architects,P,Critical,0.0-2.0-0.60,13,['are'],,,"Either these interior designers or these architects %is,are% designing the building's layout.",330417,62,cloze,
1786,Main,,,S,Elias,S,,,Filler,0.0-2.0-0.61,52,['is'],,,"Elias %is,are% leading the scientific research.",332975,63,cloze,
1786,Main,,,SP,Andy,S,those farmers,P,Critical,0.0-2.0-0.62,22,['are'],,,"Either Andy or those farmers %is,are% tending to the crops.",338795,64,cloze,
1786,Main,,,SP,Hanako,S,those mechanics,P,Filler,0.0-2.0-0.63,29,['are'],,,"Both Hanako and those mechanics %is,are% repairing the truck engine.",341547,65,cloze,
1786,Main,,,S,Zeynab,S,,,Filler,0.0-2.0-0.64,54,['is'],,,"Zeynab %is,are% caring for the garden.",343988,66,cloze,
1786,Main,,,PS,those nurses,P,Bill,S,Critical,0.0-2.0-0.65,17,['are'],,,"Either those nurses or Bill %is,are% attending to the patients.",350600,67,cloze,
1786,Main,,,PP,those trainers,P,those athletes,P,Critical,0.0-2.0-0.66,23,['are'],,,"Either those trainers or those athletes %is,are% working out at the gym.",353794,68,cloze,
1786,Main,,,S,Joey,S,,,Filler,0.0-2.0-0.67,70,['is'],,,"Joey %is,are% developing the game software.",356097,69,cloze,
1786,Main,,,P,those farmers,P,,,Filler,0.0-2.0-0.68,47,['are'],,,"Those farmers %is,are% tending to the crops.",358211,70,cloze,
1786,Main,,,SP,Lisa,S,those children,P,Filler,0.0-2.0-0.69,30,['are'],,,"Both Lisa and those children %is,are% preparing dinner.",361661,71,cloze,
1786,Main,,,P,those athletes,P,,,Filler,0.0-2.0-0.70,48,['are'],,,"Those athletes %is,are% working out at the gym.",364226,72,cloze,
1786,Main,,,SS,Juan,S,Antonio,S,Filler,0.0-2.0-0.71,36,['are'],,,"Both Juan and Antonio %is,are% making the admission decisions.",367893,73,cloze,
1786,Main,,,PS,those staff members,P,Sarah,S,Critical,0.0-2.0-0.72,10,['is'],,,"Either those staff members or Sarah %is,are% writing the end-of-year report.",372724,74,cloze,
1786,Main,[],demographics,,,,,,,0.0-3.0,,"{'age': '34', 'P0_Q0': None, 'enjoy': 'Better than the average experiment', 'gender': 'Female', 'correct': 'Yes', 'payment': 'The payment was fair', 'comments': '', 'language': 'Yes', 'education': 'Some college', 'other-language': ''}",25131,,,398021,75,survey,
1786,Main,,thanks,,,,,,,0.0-4.0,,0,2328,Thank you for your time! Please click 'Continue' and then wait a moment until you're directed back to Prolific.<br><br>,,400354,76,html-button-response,
1771,Main,,irb,,,,,,,0.0-0.0,,0,66969,"<p><font size=""3"">We invite you to participate in a research study on language production and comprehension. Your experimenter will ask you to do a linguistic task such as reading sentences or words, naming pictures or describing scenes, making up sentences of your own, or participating in a simple language game. <br><br>There are no risks or benefits of any kind involved in this study. <br><br>You will be paid for your participation at the posted rate.<br><br>If you have read this form and have decided to participate in this experiment, please understand your participation is voluntary and you have the right to withdraw your consent or discontinue participation at anytime without penalty or loss of benefits to which you are otherwise entitled. You have the right to refuse to do particular tasks. Your individual privacy will be maintained in all published and written data resulting from the study. You may print this form for your records.<br><br>CONTACT INFORMATION: If you have any questions, concerns or complaints about this research study, its procedures, risks and benefits, you should contact the Protocol Director Meghan Sumner at (650)-725-9336. If you are not satisfied with how this study is being conducted, or if you have any concerns, complaints, or general questions about the research or your rights as a participant, please contact the Stanford Institutional Review Board (IRB) to speak to someone independent of the research team at (650)-723-2480 or toll free at 1-866-680-2906. You can also write to the Stanford IRB, Stanford University, 3000 El Camino Real, Five Palo Alto Square, 4th Floor, Palo Alto, CA 94306 USA.<br><br>If you agree to participate, please proceed to the study tasks.</font></p>",,67018,0,html-button-response,
1771,Main,,instructions,,,,,,,0.0-1.0,, ,61058,"In this experiment, you will read a series of sentences and will be asked to indicate the word which best completes it.<br><br><strong>Please type the word 'is' or 'are' in the blank.</strong> <br><br>If you're unsure about your choice, follow your first instinct.<br><br>When you're ready to begin, press the space bar.",,128080,1,html-keyboard-response,
1771,Main,,,P,those nurses,P,,,Filler,0.0-2.0-0.0,42,['are'],,,"Those nurses %is,are% attending to the patients.",137250,2,cloze,
1771,Main,,,PS,those volunteers,P,Hasan,S,Critical,0.0-2.0-0.1,20,['are'],,,"Either those volunteers or Hasan %is,are% sorting the books.",177886,3,cloze,
1771,Main,,,SP,Bill,S,those nurses,P,Critical,0.0-2.0-0.2,17,['are'],,,"Either Bill or those nurses %is,are% attending to the patients.",194316,4,cloze,
1771,Main,,,PP,those police officers,P,those detectives,P,Critical,0.0-2.0-0.3,3,['are'],,,"Either those police officers or those detectives %is,are% investigating the crime scene.",222030,5,cloze,
1771,Main,,,P,those editors,P,,,Filler,0.0-2.0-0.4,39,['are'],,,"Those editors %is,are% proofreading the manuscripts.",230134,6,cloze,
1771,Main,,,PP,these girls,P,those boys,P,Filler,0.0-2.0-0.5,26,['are'],,,"Both these girls and those boys %is,are% interviewing the movie star.",238513,7,cloze,
1771,Main,,,PP,those police officers,P,those detectives,P,Filler,0.0-2.0-0.6,28,['are'],,,"Both those police officers and those detectives %is,are% investigating the crime scene.",263303,8,cloze,
1771,Main,,,S,Pedro,S,,,Filler,0.0-2.0-0.7,53,['is'],,,"Pedro %is,are% editing the academic journal.",270510,9,cloze,
1771,Main,,,S,Mateo,S,,,Filler,0.0-2.0-0.8,50,['is'],,,"Mateo %is,are% organizing the charity event.",316532,10,cloze,
1771,Main,,,PS,those electricians,P,Melissa,S,Filler,0.0-2.0-0.9,33,['are'],,,"Both those electricians and Melissa %is,are% fixing the wiring issues.",323507,11,cloze,
1771,Main,,,SP,David,S,those plumbers,P,Filler,0.0-2.0-0.10,31,['are'],,,"Both David and those plumbers %is,are% fixing the leaking pipe.",328920,12,cloze,
1771,Main,,,SS,Thomas,S,Maria,S,Critical,0.0-2.0-0.11,19,['are'],,,"Either Thomas or Maria %is,are% sewing the dresses.",335786,13,cloze,
1771,Main,,,P,those volunteers,P,,,Filler,0.0-2.0-0.12,45,['are'],,,"Those volunteers %is,are% sorting the books.",340444,14,cloze,
1771,Main,,,S,Ali,S,,,Filler,0.0-2.0-0.13,72,['is'],,,"Ali %is,are% cooking the festive meal.",345952,15,cloze,
1771,Main,,,S,Yuki,S,,,Filler,0.0-2.0-0.14,66,['is'],,,"Yuki %is,are% evaluating the scholarship applications.",367429,16,cloze,
1771,Main,,,S,Maria,S,,,Filler,0.0-2.0-0.15,64,['is'],,,"Maria %is,are% producing the documentary film.",372487,17,cloze,
1771,Main,,,P,those kids,P,,,Filler,0.0-2.0-0.16,43,['are'],,,"Those kids %is,are% building the tree house.",376624,18,cloze,
1771,Main,,,S,Jimmy,S,,,Filler,0.0-2.0-0.17,61,['is'],,,"Jimmy %is,are% fertilizing the fields.",380640,19,cloze,
1771,Main,,,S,Kim,S,,,Filler,0.0-2.0-0.18,60,['is'],,,"Kim %is,are% cataloging the library collection.",384304,20,cloze,
1771,Main,,,S,Liam,S,,,Filler,0.0-2.0-0.19,68,['is'],,,"Liam %is,are% solving the mystery case.",388283,21,cloze,
1771,Main,,,PP,these cooks,P,those children,P,Critical,0.0-2.0-0.20,5,['are'],,,"Either these cooks or those children %is,are% preparing dinner.",394420,22,cloze,
1771,Main,,,PS,these research assistants,P,Fatima,S,Filler,0.0-2.0-0.21,32,['are'],,,"Both these research assistants and Fatima %is,are% conducting the experiments.",430416,23,cloze,
1771,Main,,,SP,Hanako,S,those mechanics,P,Filler,0.0-2.0-0.22,29,['are'],,,"Both Hanako and those mechanics %is,are% repairing the truck engine.",434604,24,cloze,
1771,Main,,,P,those tailors,P,,,Filler,0.0-2.0-0.23,44,['are'],,,"Those tailors %is,are% sewing the dresses.",439175,25,cloze,
1771,Main,,,P,these photographers,P,,,Filler,0.0-2.0-0.24,41,['are'],,,"These photographers %is,are% recording the solar eclipse.",443630,26,cloze,
1771,Main,,,SP,Krishna,S,those statisticians,P,Critical,0.0-2.0-0.25,12,['are'],,,"Either Krishna or those statisticians %is,are% analyzing the market trends.",450167,27,cloze,
1771,Main,,,P,those farmers,P,,,Filler,0.0-2.0-0.26,47,['are'],,,"Those farmers %is,are% tending to the crops.",454795,28,cloze,
1771,Main,,,S,Carlos,S,,,Filler,0.0-2.0-0.27,62,['is'],,,"Carlos %is,are% painting the mural.",474576,29,cloze,
1771,Main,,,S,Noah,S,,,Filler,0.0-2.0-0.28,57,['is'],,,"Noah %is,are% servicing the air conditioning units.",478803,30,cloze,
1771,Main,,,PP,those administrators,P,these teachers,P,Critical,0.0-2.0-0.29,11,['are'],,,"Either those administrators or these teachers %is,are% making the admission decisions.",482865,31,cloze,
1771,Main,,,SS,Andy,S,Joey,S,Critical,0.0-2.0-0.30,22,['are'],,,"Either Andy or Joey %is,are% tending to the crops.",488230,32,cloze,
1771,Main,,,SS,Jimmy,S,Carlos,S,Critical,0.0-2.0-0.31,18,['are'],,,"Either Jimmy or Carlos %is,are% building the tree house.",493554,33,cloze,
1771,Main,,,P,those parents,P,,,Filler,0.0-2.0-0.32,49,['are'],,,"Those parents %is,are% taking care of the babies.",499278,34,cloze,
1771,Main,,,SS,Hank,S,Pedro,S,Critical,0.0-2.0-0.33,24,['are'],,,"Either Hank or Pedro %is,are% taking care of the babies.",503123,35,cloze,
1771,Main,,,SS,Krishna,S,Amir,S,Filler,0.0-2.0-0.34,37,['are'],,,"Both Krishna and Amir %is,are% analyzing the market trends.",507085,36,cloze,
1771,Main,,,P,those painters,P,,,Filler,0.0-2.0-0.35,46,['are'],,,"Those painters %is,are% using the art studio.",519818,37,cloze,
1771,Main,,,PS,those painters,P,Lydia,S,Critical,0.0-2.0-0.36,21,['are'],,,"Either those painters or Lydia %is,are% using the art studio.",533609,38,cloze,
1771,Main,,,S,Joey,S,,,Filler,0.0-2.0-0.37,70,['is'],,,"Joey %is,are% developing the game software.",537760,39,cloze,
1771,Main,,,S,Emma,S,,,Filler,0.0-2.0-0.38,55,['is'],,,"Emma %is,are% resolving the network issues",542650,40,cloze,
1771,Main,,,PP,those astronomers,P,these photographers,P,Critical,0.0-2.0-0.39,16,['are'],,,"Either those astronomers or these photographers %is,are% recording the solar eclipse.",557908,41,cloze,
1771,Main,,,PP,these housekeepers,P,those plumbers,P,Critical,0.0-2.0-0.40,6,['are'],,,"Either these housekeepers or those plumbers %is,are% fixing the leaking pipe.",562574,42,cloze,
1771,Main,,,P,those athletes,P,,,Filler,0.0-2.0-0.41,48,['are'],,,"Those athletes %is,are% working out at the gym.",568992,43,cloze,
1771,Main,,,S,Hank,S,,,Filler,0.0-2.0-0.42,73,['is'],,,"Hank %is,are% constructing the playground.",587377,44,cloze,
1771,Main,,,PS,those students,P,William,S,Critical,0.0-2.0-0.43,2,['are'],,,"Either those students or William %is,are% drafting the important email.",592437,45,cloze,
1771,Main,,,PP,those graduate students,P,these research assistants,P,Critical,0.0-2.0-0.44,7,['are'],,,"Either those graduate students or these research assistants %is,are% conducting the experiments.",597480,46,cloze,
1771,Main,,,S,Peter,S,,,Filler,0.0-2.0-0.45,56,['is'],,,"Peter %is,are% composing the annual report.",601747,47,cloze,
1771,Main,,,PP,these professors,P,those students,P,Filler,0.0-2.0-0.46,27,['are'],,,"Both these professors and those students %is,are% drafting the important email.",608814,48,cloze,
1771,Main,,,S,Lin,S,,,Filler,0.0-2.0-0.47,51,['is'],,,"Lin %is,are% reviewing the project proposals.",663085,49,cloze,
1771,Main,,,S,Bill,S,,,Filler,0.0-2.0-0.48,59,['is'],,,"Bill %is,are% planning the conference.",668316,50,cloze,
1771,Main,,,P,these architects,P,,,Filler,0.0-2.0-0.49,38,['are'],,,"These architects %is,are% designing the building's layout.",673615,51,cloze,
1771,Main,,,PS,those designers,P,Brian,S,Filler,0.0-2.0-0.50,34,['are'],,,"Both those designers and Brian %is,are% creating the fashion collection.",677852,52,cloze,
1771,Main,,,S,Ellen,S,,,Filler,0.0-2.0-0.51,71,['is'],,,"Ellen %is,are% renovating the historic building.",681925,53,cloze,
1771,Main,,,SS,Peter,S,Noah,S,Critical,0.0-2.0-0.52,15,['are'],,,"Either Peter or Noah %is,are% handling the legal documents.",686663,54,cloze,
1771,Main,,,PP,these engineers,P,those electricians,P,Critical,0.0-2.0-0.53,8,['are'],,,"Either these engineers or those electricians %is,are% fixing the wiring issues.",690489,55,cloze,
1771,Main,,,SS,Ellen,S,Ali,S,Critical,0.0-2.0-0.54,23,['are'],,,"Either Ellen or Ali %is,are% working out at the gym.",694204,56,cloze,
1771,Main,,,S,Alex,S,,,Filler,0.0-2.0-0.55,58,['is'],,,"Alex %is,are% installing the security system.",704161,57,cloze,
1771,Main,,,SS,Sarah,S,Matt,S,Filler,0.0-2.0-0.56,35,['are'],,,"Both Sarah and Matt %is,are% writing the end-of-year report.",709143,58,cloze,
1771,Main,,,SS,Zeynab,S,Emma,S,Critical,0.0-2.0-0.57,14,['are'],,,"Either Zeynab or Emma %is,are% proofreading the manuscripts.",713437,59,cloze,
1771,Main,,,PP,these drivers,P,those mechanics,P,Critical,0.0-2.0-0.58,4,['are'],,,"Either these drivers or those mechanics %is,are% repairing the truck engine.",718194,60,cloze,
1771,Main,,,S,Hasan,S,,,Filler,0.0-2.0-0.59,65,['is'],,,"Hasan %is,are% decorating the gallery.",722450,61,cloze,
1771,Main,,,PS,those designers,P,Brian,S,Critical,0.0-2.0-0.60,9,['are'],,,"Either those designers or Brian %is,are% creating the fashion collection.",738658,62,cloze,
1771,Main,,,S,Zeynab,S,,,Filler,0.0-2.0-0.61,54,['is'],,,"Zeynab %is,are% caring for the garden.",742332,63,cloze,
1771,Main,,,SP,Lisa,S,those children,P,Filler,0.0-2.0-0.62,30,['are'],,,"Both Lisa and those children %is,are% preparing dinner.",747317,64,cloze,
1771,Main,,,SP,Hossein,S,those illustrators,P,Critical,0.0-2.0-0.63,25,['are'],,,"Either Hossein or those illustrators %is,are% sketching the concept art.",752338,65,cloze,
1771,Main,,,P,those lawyers,P,,,Filler,0.0-2.0-0.64,40,['are'],,,"Those lawyers %is,are% handling the legal documents.",756236,66,cloze,
1771,Main,,,S,Andy,S,,,Filler,0.0-2.0-0.65,69,['is'],,,"Andy %is,are% capturing the wildlife in photographs.",761596,67,cloze,
1771,Main,,,PS,these architects,P,Mateo,S,Critical,0.0-2.0-0.66,13,['are'],,,"Either these architects or Mateo %is,are% designing the building's layout.",775699,68,cloze,
1771,Main,,,PS,those boys,P,John,S,Critical,0.0-2.0-0.67,1,['are'],,,"Either those boys or John %is,are% interviewing the movie star.",781139,69,cloze,
1771,Main,,,S,Elias,S,,,Filler,0.0-2.0-0.68,52,['is'],,,"Elias %is,are% leading the scientific research.",785571,70,cloze,
1771,Main,,,S,Thomas,S,,,Filler,0.0-2.0-0.69,63,['is'],,,"Thomas %is,are% training at the sports center.",790156,71,cloze,
1771,Main,,,S,Lydia,S,,,Filler,0.0-2.0-0.70,67,['is'],,,"Lydia %is,are% tailoring the costumes.",798782,72,cloze,
1771,Main,,,PS,those staff members,P,Sarah,S,Critical,0.0-2.0-0.71,10,['are'],,,"Either those staff members or Sarah %is,are% writing the end-of-year report.",806805,73,cloze,
1771,Main,,,SS,Juan,S,Antonio,S,Filler,0.0-2.0-0.72,36,['are'],,,"Both Juan and Antonio %is,are% making the admission decisions.",811519,74,cloze,
1771,Main,[],demographics,,,,,,,0.0-3.0,,"{'age': '43', 'P0_Q0': None, 'enjoy': 'An average experiment', 'gender': 'Female', 'correct': 'Yes', 'payment': 'The payment was fair', 'comments': 'NA', 'language': 'Yes', 'education': 'Graduated high school', 'other-language': ''}",83005,,,894896,75,survey,
1771,Main,,thanks,,,,,,,0.0-4.0,,0,3184,Thank you for your time! Please click 'Continue' and then wait a moment until you're directed back to Prolific.<br><br>,,898088,76,html-button-response,
1625,Main,,irb,,,,,,,0.0-0.0,,0,3697,"<p><font size=""3"">We invite you to participate in a research study on language production and comprehension. Your experimenter will ask you to do a linguistic task such as reading sentences or words, naming pictures or describing scenes, making up sentences of your own, or participating in a simple language game. <br><br>There are no risks or benefits of any kind involved in this study. <br><br>You will be paid for your participation at the posted rate.<br><br>If you have read this form and have decided to participate in this experiment, please understand your participation is voluntary and you have the right to withdraw your consent or discontinue participation at anytime without penalty or loss of benefits to which you are otherwise entitled. You have the right to refuse to do particular tasks. Your individual privacy will be maintained in all published and written data resulting from the study. You may print this form for your records.<br><br>CONTACT INFORMATION: If you have any questions, concerns or complaints about this research study, its procedures, risks and benefits, you should contact the Protocol Director Meghan Sumner at (650)-725-9336. If you are not satisfied with how this study is being conducted, or if you have any concerns, complaints, or general questions about the research or your rights as a participant, please contact the Stanford Institutional Review Board (IRB) to speak to someone independent of the research team at (650)-723-2480 or toll free at 1-866-680-2906. You can also write to the Stanford IRB, Stanford University, 3000 El Camino Real, Five Palo Alto Square, 4th Floor, Palo Alto, CA 94306 USA.<br><br>If you agree to participate, please proceed to the study tasks.</font></p>",,3699,0,html-button-response,
1625,Main,,instructions,,,,,,,0.0-1.0,, ,1774,"In this experiment, you will read a series of sentences and will be asked to indicate the word which best completes it.<br><br><strong>Please type the word 'is' or 'are' in the blank.</strong> <br><br>If you're unsure about your choice, follow your first instinct.<br><br>When you're ready to begin, press the space bar.",,5473,1,html-keyboard-response,
1625,Main,,,SS,Hossein,S,Elias,S,Critical,0.0-2.0-0.0,25,['are'],,,"Either Hossein or Elias %is,are% sketching the concept art.",13255,2,cloze,
1625,Main,,,SS,David,S,Joan,S,Critical,0.0-2.0-0.1,6,['are'],,,"Either David or Joan %is,are% fixing the leaking pipe.",15916,3,cloze,
1625,Main,,,SS,Sarah,S,Matt,S,Filler,0.0-2.0-0.2,35,['are'],,,"Both Sarah and Matt %is,are% writing the end-of-year report.",19748,4,cloze,
1625,Main,,,PS,these research assistants,P,Fatima,S,Filler,0.0-2.0-0.3,32,['are'],,,"Both these research assistants and Fatima %is,are% conducting the experiments.",21731,5,cloze,
1625,Main,,,SS,Hanako,S,George,S,Critical,0.0-2.0-0.4,4,['are'],,,"Either Hanako or George %is,are% repairing the truck engine.",23178,6,cloze,
1625,Main,,,P,those editors,P,,,Filler,0.0-2.0-0.5,39,['are'],,,"Those editors %is,are% proofreading the manuscripts.",24774,7,cloze,
1625,Main,,,PS,those designers,P,Brian,S,Filler,0.0-2.0-0.6,34,['are'],,,"Both those designers and Brian %is,are% creating the fashion collection.",26791,8,cloze,
1625,Main,,,S,Alex,S,,,Filler,0.0-2.0-0.7,58,['is'],,,"Alex %is,are% installing the security system.",28633,9,cloze,
1625,Main,,,P,these architects,P,,,Filler,0.0-2.0-0.8,38,['are'],,,"These architects %is,are% designing the building's layout.",31446,10,cloze,
1625,Main,,,S,Joey,S,,,Filler,0.0-2.0-0.9,70,['is'],,,"Joey %is,are% developing the game software.",32948,11,cloze,
1625,Main,,,PP,these fashion designers,P,those tailors,P,Critical,0.0-2.0-0.10,19,['are'],,,"Either these fashion designers or those tailors %is,are% sewing the dresses.",34819,12,cloze,
1625,Main,,,P,those farmers,P,,,Filler,0.0-2.0-0.11,47,['are'],,,"Those farmers %is,are% tending to the crops.",36498,13,cloze,
1625,Main,,,SP,Brian,S,those designers,P,Critical,0.0-2.0-0.12,9,['are'],,,"Either Brian or those designers %is,are% creating the fashion collection.",38878,14,cloze,
1625,Main,,,SP,David,S,those plumbers,P,Filler,0.0-2.0-0.13,31,['are'],,,"Both David and those plumbers %is,are% fixing the leaking pipe.",40423,15,cloze,
1625,Main,,,SS,Krishna,S,Amir,S,Filler,0.0-2.0-0.14,37,['are'],,,"Both Krishna and Amir %is,are% analyzing the market trends.",42365,16,cloze,
1625,Main,,,PP,these professors,P,those students,P,Filler,0.0-2.0-0.15,27,['are'],,,"Both these professors and those students %is,are% drafting the important email.",46863,17,cloze,
1625,Main,,,S,Lydia,S,,,Filler,0.0-2.0-0.16,67,['is'],,,"Lydia %is,are% tailoring the costumes.",48232,18,cloze,
1625,Main,,,P,those lawyers,P,,,Filler,0.0-2.0-0.17,40,['are'],,,"Those lawyers %is,are% handling the legal documents.",50659,19,cloze,
1625,Main,,,P,those tailors,P,,,Filler,0.0-2.0-0.18,44,['are'],,,"Those tailors %is,are% sewing the dresses.",54439,20,cloze,
1625,Main,,,P,those kids,P,,,Filler,0.0-2.0-0.19,43,['are'],,,"Those kids %is,are% building the tree house.",55877,21,cloze,
1625,Main,,,PP,these surgeons,P,those nurses,P,Critical,0.0-2.0-0.20,17,['are'],,,"Either these surgeons or those nurses %is,are% attending to the patients.",57568,22,cloze,
1625,Main,,,SS,Peter,S,Noah,S,Critical,0.0-2.0-0.21,15,['are'],,,"Either Peter or Noah %is,are% handling the legal documents.",60885,23,cloze,
1625,Main,,,PP,those babysitters,P,those parents,P,Critical,0.0-2.0-0.22,24,['are'],,,"Either those babysitters or those parents %is,are% taking care of the babies.",63265,24,cloze,
1625,Main,,,P,those nurses,P,,,Filler,0.0-2.0-0.23,42,['are'],,,"Those nurses %is,are% attending to the patients.",64934,25,cloze,
1625,Main,,,S,Hank,S,,,Filler,0.0-2.0-0.24,73,['is'],,,"Hank %is,are% constructing the playground.",66451,26,cloze,
1625,Main,,,S,Kim,S,,,Filler,0.0-2.0-0.25,60,['is'],,,"Kim %is,are% cataloging the library collection.",68263,27,cloze,
1625,Main,,,S,Bill,S,,,Filler,0.0-2.0-0.26,59,['is'],,,"Bill %is,are% planning the conference.",69617,28,cloze,
1625,Main,,,S,Jimmy,S,,,Filler,0.0-2.0-0.27,61,['is'],,,"Jimmy %is,are% fertilizing the fields.",71078,29,cloze,
1625,Main,,,S,Yuki,S,,,Filler,0.0-2.0-0.28,66,['is'],,,"Yuki %is,are% evaluating the scholarship applications.",72480,30,cloze,
1625,Main,,,PS,those electricians,P,Melissa,S,Filler,0.0-2.0-0.29,33,['are'],,,"Both those electricians and Melissa %is,are% fixing the wiring issues.",73948,31,cloze,
1625,Main,,,SS,Jimmy,S,Carlos,S,Critical,0.0-2.0-0.30,18,['are'],,,"Either Jimmy or Carlos %is,are% building the tree house.",76005,32,cloze,
1625,Main,,,SS,Juan,S,Antonio,S,Filler,0.0-2.0-0.31,36,['are'],,,"Both Juan and Antonio %is,are% making the admission decisions.",99762,33,cloze,
1625,Main,,,S,Andy,S,,,Filler,0.0-2.0-0.32,69,['is'],,,"Andy %is,are% capturing the wildlife in photographs.",104838,34,cloze,
1625,Main,,,S,Thomas,S,,,Filler,0.0-2.0-0.33,63,['is'],,,"Thomas %is,are% training at the sports center.",106217,35,cloze,
1625,Main,,,PP,those administrators,P,these teachers,P,Critical,0.0-2.0-0.34,11,['are'],,,"Either those administrators or these teachers %is,are% making the admission decisions.",107679,36,cloze,
1625,Main,,,SS,Lydia,S,Liam,S,Critical,0.0-2.0-0.35,21,['are'],,,"Either Lydia or Liam %is,are% using the art studio.",108798,37,cloze,
1625,Main,,,S,Maria,S,,,Filler,0.0-2.0-0.36,64,['is'],,,"Maria %is,are% producing the documentary film.",109990,38,cloze,
1625,Main,,,S,Ellen,S,,,Filler,0.0-2.0-0.37,71,['is'],,,"Ellen %is,are% renovating the historic building.",111041,39,cloze,
1625,Main,,,P,those volunteers,P,,,Filler,0.0-2.0-0.38,45,['are'],,,"Those volunteers %is,are% sorting the books.",150024,40,cloze,
1625,Main,,,PP,those librarians,P,those volunteers,P,Critical,0.0-2.0-0.39,20,['are'],,,"Either those librarians or those volunteers %is,are% sorting the books.",151403,41,cloze,
1625,Main,,,PP,these interior designers,P,these architects,P,Critical,0.0-2.0-0.40,13,['are'],,,"Either these interior designers or these architects %is,are% designing the building's layout.",152920,42,cloze,
1625,Main,,,S,Carlos,S,,,Filler,0.0-2.0-0.41,62,['is'],,,"Carlos %is,are% painting the mural.",154746,43,cloze,
1625,Main,,,P,those painters,P,,,Filler,0.0-2.0-0.42,46,['are'],,,"Those painters %is,are% using the art studio.",156373,44,cloze,
1625,Main,,,SS,Alex,S,Noah,S,Critical,0.0-2.0-0.43,16,['are'],,,"Either Alex or Noah %is,are% recording the solar eclipse.",161139,45,cloze,
1625,Main,,,SP,Lisa,S,those children,P,Filler,0.0-2.0-0.44,30,['are'],,,"Both Lisa and those children %is,are% preparing dinner.",165158,46,cloze,
1625,Main,,,PS,those electricians,P,Melissa,S,Critical,0.0-2.0-0.45,8,['are'],,,"Either those electricians or Melissa %is,are% fixing the wiring issues.",166497,47,cloze,
1625,Main,,,PS,those farmers,P,Andy,S,Critical,0.0-2.0-0.46,22,['are'],,,"Either those farmers or Andy %is,are% tending to the crops.",167739,48,cloze,
1625,Main,,,S,Ali,S,,,Filler,0.0-2.0-0.47,72,['is'],,,"Ali %is,are% cooking the festive meal.",169207,49,cloze,
1625,Main,,,PP,those police officers,P,those detectives,P,Filler,0.0-2.0-0.48,28,['are'],,,"Both those police officers and those detectives %is,are% investigating the crime scene.",170820,50,cloze,
1625,Main,,,SP,Hanako,S,those mechanics,P,Filler,0.0-2.0-0.49,29,['are'],,,"Both Hanako and those mechanics %is,are% repairing the truck engine.",173761,51,cloze,
1625,Main,,,S,Noah,S,,,Filler,0.0-2.0-0.50,57,['is'],,,"Noah %is,are% servicing the air conditioning units.",177407,52,cloze,
1625,Main,,,SP,Fatima,S,these research assistants,P,Critical,0.0-2.0-0.51,7,['are'],,,"Either Fatima or these research assistants %is,are% conducting the experiments.",179955,53,cloze,
1625,Main,,,S,Lin,S,,,Filler,0.0-2.0-0.52,51,['is'],,,"Lin %is,are% reviewing the project proposals.",181700,54,cloze,
1625,Main,,,SP,William,S,those students,P,Critical,0.0-2.0-0.53,2,['are'],,,"Either William or those students %is,are% drafting the important email.",185207,55,cloze,
1625,Main,,,S,Liam,S,,,Filler,0.0-2.0-0.54,68,['is'],,,"Liam %is,are% solving the mystery case.",191326,56,cloze,
1625,Main,,,SS,Ellen,S,Ali,S,Critical,0.0-2.0-0.55,23,['are'],,,"Either Ellen or Ali %is,are% working out at the gym.",192851,57,cloze,
1625,Main,,,PS,those boys,P,John,S,Critical,0.0-2.0-0.56,1,['are'],,,"Either those boys or John %is,are% interviewing the movie star.",206694,58,cloze,
1625,Main,,,S,Elias,S,,,Filler,0.0-2.0-0.57,52,['is'],,,"Elias %is,are% leading the scientific research.",208418,59,cloze,
1625,Main,,,SS,Lisa,S,George,S,Critical,0.0-2.0-0.58,5,['are'],,,"Either Lisa or George %is,are% preparing dinner.",209882,60,cloze,
1625,Main,,,S,Mateo,S,,,Filler,0.0-2.0-0.59,50,['is'],,,"Mateo %is,are% organizing the charity event.",211608,61,cloze,
1625,Main,,,P,those parents,P,,,Filler,0.0-2.0-0.60,49,['are'],,,"Those parents %is,are% taking care of the babies.",215931,62,cloze,
1625,Main,,,SS,Sarah,S,Matt,S,Critical,0.0-2.0-0.61,10,['are'],,,"Either Sarah or Matt %is,are% writing the end-of-year report.",217780,63,cloze,
1625,Main,,,PP,these girls,P,those boys,P,Filler,0.0-2.0-0.62,26,['are'],,,"Both these girls and those boys %is,are% interviewing the movie star.",219412,64,cloze,
1625,Main,,,P,those athletes,P,,,Filler,0.0-2.0-0.63,48,['are'],,,"Those athletes %is,are% working out at the gym.",220836,65,cloze,
1625,Main,,,S,Hasan,S,,,Filler,0.0-2.0-0.64,65,['is'],,,"Hasan %is,are% decorating the gallery.",222345,66,cloze,
1625,Main,,,SP,Krishna,S,those statisticians,P,Critical,0.0-2.0-0.65,12,['are'],,,"Either Krishna or those statisticians %is,are% analyzing the market trends.",226338,67,cloze,
1625,Main,,,S,Peter,S,,,Filler,0.0-2.0-0.66,56,['is'],,,"Peter %is,are% composing the annual report.",233212,68,cloze,
1625,Main,,,PP,those secretaries,P,those editors,P,Critical,0.0-2.0-0.67,14,['are'],,,"Either those secretaries or those editors %is,are% proofreading the manuscripts.",236873,69,cloze,
1625,Main,,,P,these photographers,P,,,Filler,0.0-2.0-0.68,41,['are'],,,"These photographers %is,are% recording the solar eclipse.",239149,70,cloze,
1625,Main,,,S,Pedro,S,,,Filler,0.0-2.0-0.69,53,['is'],,,"Pedro %is,are% editing the academic journal.",240493,71,cloze,
1625,Main,,,PP,the team of police officers,P,those detectives,P,Critical,0.0-2.0-0.70,3,['are'],,,"Either the team of police officers or those detectives %is,are% investigating the crime scene.",251956,72,cloze,
1625,Main,,,S,Zeynab,S,,,Filler,0.0-2.0-0.71,54,['is'],,,"Zeynab %is,are% caring for the garden.",256414,73,cloze,
1625,Main,,,S,Emma,S,,,Filler,0.0-2.0-0.72,55,['is'],,,"Emma %is,are% resolving the network issues",259094,74,cloze,
1625,Main,[],demographics,,,,,,,0.0-3.0,,"{'age': '32', 'P0_Q0': None, 'enjoy': 'Worse than the average experiment', 'gender': 'Male', 'correct': 'Yes', 'payment': 'The payment was fair', 'comments': '', 'language': 'Yes', 'education': 'Hold a higher degree', 'other-language': ''}",36556,,,295720,75,survey,
1625,Main,,thanks,,,,,,,0.0-4.0,,0,1265,Thank you for your time! Please click 'Continue' and then wait a moment until you're directed back to Prolific.<br><br>,,296988,76,html-button-response,
1704,Main,,irb,,,,,,,0.0-0.0,,0,1472,"<p><font size=""3"">We invite you to participate in a research study on language production and comprehension. Your experimenter will ask you to do a linguistic task such as reading sentences or words, naming pictures or describing scenes, making up sentences of your own, or participating in a simple language game. <br><br>There are no risks or benefits of any kind involved in this study. <br><br>You will be paid for your participation at the posted rate.<br><br>If you have read this form and have decided to participate in this experiment, please understand your participation is voluntary and you have the right to withdraw your consent or discontinue participation at anytime without penalty or loss of benefits to which you are otherwise entitled. You have the right to refuse to do particular tasks. Your individual privacy will be maintained in all published and written data resulting from the study. You may print this form for your records.<br><br>CONTACT INFORMATION: If you have any questions, concerns or complaints about this research study, its procedures, risks and benefits, you should contact the Protocol Director Meghan Sumner at (650)-725-9336. If you are not satisfied with how this study is being conducted, or if you have any concerns, complaints, or general questions about the research or your rights as a participant, please contact the Stanford Institutional Review Board (IRB) to speak to someone independent of the research team at (650)-723-2480 or toll free at 1-866-680-2906. You can also write to the Stanford IRB, Stanford University, 3000 El Camino Real, Five Palo Alto Square, 4th Floor, Palo Alto, CA 94306 USA.<br><br>If you agree to participate, please proceed to the study tasks.</font></p>",,1491,0,html-button-response,
1704,Main,,instructions,,,,,,,0.0-1.0,, ,5098,"In this experiment, you will read a series of sentences and will be asked to indicate the word which best completes it.<br><br><strong>Please type the word 'is' or 'are' in the blank.</strong> <br><br>If you're unsure about your choice, follow your first instinct.<br><br>When you're ready to begin, press the space bar.",,6592,1,html-keyboard-response,
1704,Main,,,PS,these research assistants,P,Fatima,S,Filler,0.0-2.0-0.0,32,['are'],,,"Both these research assistants and Fatima %is,are% conducting the experiments.",11436,2,cloze,
1704,Main,,,PP,these girls,P,those boys,P,Filler,0.0-2.0-0.1,26,['are'],,,"Both these girls and those boys %is,are% interviewing the movie star.",14656,3,cloze,
1704,Main,,,S,Pedro,S,,,Filler,0.0-2.0-0.2,53,['is'],,,"Pedro %is,are% editing the academic journal.",17287,4,cloze,
1704,Main,,,SS,Sarah,S,Matt,S,Filler,0.0-2.0-0.3,35,['are'],,,"Both Sarah and Matt %is,are% writing the end-of-year report.",20040,5,cloze,
1704,Main,,,S,Ellen,S,,,Filler,0.0-2.0-0.4,71,['is'],,,"Ellen %is,are% renovating the historic building.",22737,6,cloze,
1704,Main,,,SP,Hasan,S,those volunteers,P,Critical,0.0-2.0-0.5,20,['are'],,,"Either Hasan or those volunteers %is,are% sorting the books.",25738,7,cloze,
1704,Main,,,SS,David,S,Joan,S,Critical,0.0-2.0-0.6,6,['is'],,,"Either David or Joan %is,are% fixing the leaking pipe.",32956,8,cloze,
1704,Main,,,P,those farmers,P,,,Filler,0.0-2.0-0.7,47,['are'],,,"Those farmers %is,are% tending to the crops.",35226,9,cloze,
1704,Main,,,S,Liam,S,,,Filler,0.0-2.0-0.8,68,['is'],,,"Liam %is,are% solving the mystery case.",38072,10,cloze,
1704,Main,,,S,Peter,S,,,Filler,0.0-2.0-0.9,56,['is'],,,"Peter %is,are% composing the annual report.",40789,11,cloze,
1704,Main,,,S,Joey,S,,,Filler,0.0-2.0-0.10,70,['is'],,,"Joey %is,are% developing the game software.",43289,12,cloze,
1704,Main,,,SS,William,S,Jackie,S,Critical,0.0-2.0-0.11,2,['is'],,,"Either William or Jackie %is,are% drafting the important email.",47206,13,cloze,
1704,Main,,,P,those athletes,P,,,Filler,0.0-2.0-0.12,48,['are'],,,"Those athletes %is,are% working out at the gym.",49360,14,cloze,
1704,Main,,,S,Andy,S,,,Filler,0.0-2.0-0.13,69,['is'],,,"Andy %is,are% capturing the wildlife in photographs.",51773,15,cloze,
1704,Main,,,SP,Lisa,S,those children,P,Filler,0.0-2.0-0.14,30,['are'],,,"Both Lisa and those children %is,are% preparing dinner.",54857,16,cloze,
1704,Main,,,SS,Zeynab,S,Emma,S,Critical,0.0-2.0-0.15,14,['is'],,,"Either Zeynab or Emma %is,are% proofreading the manuscripts.",57694,17,cloze,
1704,Main,,,SS,Andy,S,Joey,S,Critical,0.0-2.0-0.16,22,['is'],,,"Either Andy or Joey %is,are% tending to the crops.",60227,18,cloze,
1704,Main,,,P,those nurses,P,,,Filler,0.0-2.0-0.17,42,['are'],,,"Those nurses %is,are% attending to the patients.",62629,19,cloze,
1704,Main,,,S,Mateo,S,,,Filler,0.0-2.0-0.18,50,['is'],,,"Mateo %is,are% organizing the charity event.",65343,20,cloze,
1704,Main,,,PP,these professors,P,those students,P,Filler,0.0-2.0-0.19,27,['are'],,,"Both these professors and those students %is,are% drafting the important email.",68208,21,cloze,
1704,Main,,,S,Kim,S,,,Filler,0.0-2.0-0.20,60,['is'],,,"Kim %is,are% cataloging the library collection.",70509,22,cloze,
1704,Main,,,P,those editors,P,,,Filler,0.0-2.0-0.21,39,['are'],,,"Those editors %is,are% proofreading the manuscripts.",72863,23,cloze,
1704,Main,,,P,these photographers,P,,,Filler,0.0-2.0-0.22,41,['are'],,,"These photographers %is,are% recording the solar eclipse.",75144,24,cloze,
1704,Main,,,SP,Hanako,S,those mechanics,P,Filler,0.0-2.0-0.23,29,['are'],,,"Both Hanako and those mechanics %is,are% repairing the truck engine.",77296,25,cloze,
1704,Main,,,P,those kids,P,,,Filler,0.0-2.0-0.24,43,['are'],,,"Those kids %is,are% building the tree house.",79346,26,cloze,
1704,Main,,,S,Hank,S,,,Filler,0.0-2.0-0.25,73,['is'],,,"Hank %is,are% constructing the playground.",81526,27,cloze,
1704,Main,,,PS,those parents,P,Hank,S,Critical,0.0-2.0-0.26,24,['is'],,,"Either those parents or Hank %is,are% taking care of the babies.",84247,28,cloze,
1704,Main,,,PP,those police officers,P,those detectives,P,Filler,0.0-2.0-0.27,28,['are'],,,"Both those police officers and those detectives %is,are% investigating the crime scene.",86764,29,cloze,
1704,Main,,,S,Emma,S,,,Filler,0.0-2.0-0.28,55,['is'],,,"Emma %is,are% resolving the network issues",90514,30,cloze,
1704,Main,,,SS,Brian,S,Jamaal,S,Critical,0.0-2.0-0.29,9,['are'],,,"Either Brian or Jamaal %is,are% creating the fashion collection.",96045,31,cloze,
1704,Main,,,P,those painters,P,,,Filler,0.0-2.0-0.30,46,['are'],,,"Those painters %is,are% using the art studio.",98028,32,cloze,
1704,Main,,,S,Yuki,S,,,Filler,0.0-2.0-0.31,66,['is'],,,"Yuki %is,are% evaluating the scholarship applications.",100295,33,cloze,
1704,Main,,,SS,Juan,S,Antonio,S,Filler,0.0-2.0-0.32,36,['are'],,,"Both Juan and Antonio %is,are% making the admission decisions.",102245,34,cloze,
1704,Main,,,PP,these girls,P,those boys,P,Critical,0.0-2.0-0.33,1,['are'],,,"Either these girls or those boys %is,are% interviewing the movie star.",105462,35,cloze,
1704,Main,,,S,Noah,S,,,Filler,0.0-2.0-0.34,57,['is'],,,"Noah %is,are% servicing the air conditioning units.",108115,36,cloze,
1704,Main,,,SS,Krishna,S,Amir,S,Filler,0.0-2.0-0.35,37,['are'],,,"Both Krishna and Amir %is,are% analyzing the market trends.",110413,37,cloze,
1704,Main,,,S,Ali,S,,,Filler,0.0-2.0-0.36,72,['is'],,,"Ali %is,are% cooking the festive meal.",113013,38,cloze,
1704,Main,,,PS,those designers,P,Brian,S,Filler,0.0-2.0-0.37,34,['are'],,,"Both those designers and Brian %is,are% creating the fashion collection.",115284,39,cloze,
1704,Main,,,S,Jimmy,S,,,Filler,0.0-2.0-0.38,61,['is'],,,"Jimmy %is,are% fertilizing the fields.",117430,40,cloze,
1704,Main,,,PS,these photographers,P,Alex,S,Critical,0.0-2.0-0.39,16,['are'],,,"Either these photographers or Alex %is,are% recording the solar eclipse.",120364,41,cloze,
1704,Main,,,SS,Ellen,S,Ali,S,Critical,0.0-2.0-0.40,23,['is'],,,"Either Ellen or Ali %is,are% working out at the gym.",123531,42,cloze,
1704,Main,,,P,those lawyers,P,,,Filler,0.0-2.0-0.41,40,['are'],,,"Those lawyers %is,are% handling the legal documents.",125551,43,cloze,
1704,Main,,,P,those parents,P,,,Filler,0.0-2.0-0.42,49,['are'],,,"Those parents %is,are% taking care of the babies.",127497,44,cloze,
1704,Main,,,S,Alex,S,,,Filler,0.0-2.0-0.43,58,['is'],,,"Alex %is,are% installing the security system.",131334,45,cloze,
1704,Main,,,S,Zeynab,S,,,Filler,0.0-2.0-0.44,54,['is'],,,"Zeynab %is,are% caring for the garden.",133701,46,cloze,
1704,Main,,,SP,David,S,those plumbers,P,Filler,0.0-2.0-0.45,31,['are'],,,"Both David and those plumbers %is,are% fixing the leaking pipe.",136365,47,cloze,
1704,Main,,,SP,Lydia,S,those painters,P,Critical,0.0-2.0-0.46,21,['are'],,,"Either Lydia or those painters %is,are% using the art studio.",141235,48,cloze,
1704,Main,,,SS,Mateo,S,Lin,S,Critical,0.0-2.0-0.47,13,['is'],,,"Either Mateo or Lin %is,are% designing the building's layout.",144632,49,cloze,
1704,Main,,,S,Carlos,S,,,Filler,0.0-2.0-0.48,62,['is'],,,"Carlos %is,are% painting the mural.",149404,50,cloze,
1704,Main,,,SS,Lisa,S,George,S,Critical,0.0-2.0-0.49,5,['are'],,,"Either Lisa or George %is,are% preparing dinner.",152537,51,cloze,
1704,Main,,,PS,those electricians,P,Melissa,S,Filler,0.0-2.0-0.50,33,['are'],,,"Both those electricians and Melissa %is,are% fixing the wiring issues.",155300,52,cloze,
1704,Main,,,PS,those kids,P,Jimmy,S,Critical,0.0-2.0-0.51,18,['are'],,,"Either those kids or Jimmy %is,are% building the tree house.",159251,53,cloze,
1704,Main,,,PP,those administrators,P,these teachers,P,Critical,0.0-2.0-0.52,11,['are'],,,"Either those administrators or these teachers %is,are% making the admission decisions.",162187,54,cloze,
1704,Main,,,S,Lydia,S,,,Filler,0.0-2.0-0.53,67,['is'],,,"Lydia %is,are% tailoring the costumes.",166018,55,cloze,
1704,Main,,,P,those tailors,P,,,Filler,0.0-2.0-0.54,44,['are'],,,"Those tailors %is,are% sewing the dresses.",169480,56,cloze,
1704,Main,,,S,Lin,S,,,Filler,0.0-2.0-0.55,51,['is'],,,"Lin %is,are% reviewing the project proposals.",171922,57,cloze,
1704,Main,,,SP,Hanako,S,those mechanics,P,Critical,0.0-2.0-0.56,4,['are'],,,"Either Hanako or those mechanics %is,are% repairing the truck engine.",175423,58,cloze,
1704,Main,,,SP,Bill,S,those nurses,P,Critical,0.0-2.0-0.57,17,['are'],,,"Either Bill or those nurses %is,are% attending to the patients.",179806,59,cloze,
1704,Main,,,SP,Sarah,S,those staff members,P,Critical,0.0-2.0-0.58,10,['are'],,,"Either Sarah or those staff members %is,are% writing the end-of-year report.",182770,60,cloze,
1704,Main,,,S,Hasan,S,,,Filler,0.0-2.0-0.59,65,['is'],,,"Hasan %is,are% decorating the gallery.",187674,61,cloze,
1704,Main,,,SP,Peter,S,those lawyers,P,Critical,0.0-2.0-0.60,15,['are'],,,"Either Peter or those lawyers %is,are% handling the legal documents.",190179,62,cloze,
1704,Main,,,S,Maria,S,,,Filler,0.0-2.0-0.61,64,['is'],,,"Maria %is,are% producing the documentary film.",192741,63,cloze,
1704,Main,,,SS,Fatima,S,Lucas,S,Critical,0.0-2.0-0.62,7,['is'],,,"Either Fatima or Lucas %is,are% conducting the experiments.",196709,64,cloze,
1704,Main,,,PS,those electricians,P,Melissa,S,Critical,0.0-2.0-0.63,8,['are'],,,"Either those electricians or Melissa %is,are% fixing the wiring issues.",198771,65,cloze,
1704,Main,,,PS,those statisticians,P,Krishna,S,Critical,0.0-2.0-0.64,12,['are'],,,"Either those statisticians or Krishna %is,are% analyzing the market trends.",200855,66,cloze,
1704,Main,,,SP,Hossein,S,those illustrators,P,Critical,0.0-2.0-0.65,25,['are'],,,"Either Hossein or those illustrators %is,are% sketching the concept art.",203089,67,cloze,
1704,Main,,,S,Elias,S,,,Filler,0.0-2.0-0.66,52,['is'],,,"Elias %is,are% leading the scientific research.",205289,68,cloze,
1704,Main,,,S,Bill,S,,,Filler,0.0-2.0-0.67,59,['is'],,,"Bill %is,are% planning the conference.",207689,69,cloze,
1704,Main,,,SP,Thomas,S,those tailors,P,Critical,0.0-2.0-0.68,19,['are'],,,"Either Thomas or those tailors %is,are% sewing the dresses.",209742,70,cloze,
1704,Main,,,P,those volunteers,P,,,Filler,0.0-2.0-0.69,45,['are'],,,"Those volunteers %is,are% sorting the books.",212256,71,cloze,
1704,Main,,,S,Thomas,S,,,Filler,0.0-2.0-0.70,63,['is'],,,"Thomas %is,are% training at the sports center.",214640,72,cloze,
1704,Main,,,PS,those detectives,P,Harry,S,Critical,0.0-2.0-0.71,3,['are'],,,"Either those detectives or Harry %is,are% investigating the crime scene.",216773,73,cloze,
1704,Main,,,P,these architects,P,,,Filler,0.0-2.0-0.72,38,['are'],,,"These architects %is,are% designing the building's layout.",218658,74,cloze,
1704,Main,[],demographics,,,,,,,0.0-3.0,,"{'age': '43', 'P0_Q0': None, 'enjoy': 'Worse than the average experiment', 'gender': 'Male', 'correct': 'Yes', 'payment': 'The payment was fair', 'comments': '', 'language': 'Yes', 'education': 'Hold a higher degree', 'other-language': ''}",24835,,,243581,75,survey,
1704,Main,,thanks,,,,,,,0.0-4.0,,0,1231,Thank you for your time! Please click 'Continue' and then wait a moment until you're directed back to Prolific.<br><br>,,244814,76,html-button-response,
1773,Main,,irb,,,,,,,0.0-0.0,,0,4449,"<p><font size=""3"">We invite you to participate in a research study on language production and comprehension. Your experimenter will ask you to do a linguistic task such as reading sentences or words, naming pictures or describing scenes, making up sentences of your own, or participating in a simple language game. <br><br>There are no risks or benefits of any kind involved in this study. <br><br>You will be paid for your participation at the posted rate.<br><br>If you have read this form and have decided to participate in this experiment, please understand your participation is voluntary and you have the right to withdraw your consent or discontinue participation at anytime without penalty or loss of benefits to which you are otherwise entitled. You have the right to refuse to do particular tasks. Your individual privacy will be maintained in all published and written data resulting from the study. You may print this form for your records.<br><br>CONTACT INFORMATION: If you have any questions, concerns or complaints about this research study, its procedures, risks and benefits, you should contact the Protocol Director Meghan Sumner at (650)-725-9336. If you are not satisfied with how this study is being conducted, or if you have any concerns, complaints, or general questions about the research or your rights as a participant, please contact the Stanford Institutional Review Board (IRB) to speak to someone independent of the research team at (650)-723-2480 or toll free at 1-866-680-2906. You can also write to the Stanford IRB, Stanford University, 3000 El Camino Real, Five Palo Alto Square, 4th Floor, Palo Alto, CA 94306 USA.<br><br>If you agree to participate, please proceed to the study tasks.</font></p>",,4452,0,html-button-response,
1773,Main,,instructions,,,,,,,0.0-1.0,, ,7113,"In this experiment, you will read a series of sentences and will be asked to indicate the word which best completes it.<br><br><strong>Please type the word 'is' or 'are' in the blank.</strong> <br><br>If you're unsure about your choice, follow your first instinct.<br><br>When you're ready to begin, press the space bar.",,11565,1,html-keyboard-response,
1773,Main,,,S,Noah,S,,,Filler,0.0-2.0-0.0,57,['is'],,,"Noah %is,are% servicing the air conditioning units.",15891,2,cloze,
1773,Main,,,S,Thomas,S,,,Filler,0.0-2.0-0.1,63,['is'],,,"Thomas %is,are% training at the sports center.",20744,3,cloze,
1773,Main,,,S,Bill,S,,,Filler,0.0-2.0-0.2,59,['is'],,,"Bill %is,are% planning the conference.",23542,4,cloze,
1773,Main,,,PS,those designers,P,Brian,S,Filler,0.0-2.0-0.3,34,['are'],,,"Both those designers and Brian %is,are% creating the fashion collection.",27623,5,cloze,
1773,Main,,,SS,William,S,Jackie,S,Critical,0.0-2.0-0.4,2,['are'],,,"Either William or Jackie %is,are% drafting the important email.",30409,6,cloze,
1773,Main,,,SP,Lisa,S,those children,P,Filler,0.0-2.0-0.5,30,['are'],,,"Both Lisa and those children %is,are% preparing dinner.",33825,7,cloze,
1773,Main,,,PS,those editors,P,Zeynab,S,Critical,0.0-2.0-0.6,14,['are'],,,"Either those editors or Zeynab %is,are% proofreading the manuscripts.",38247,8,cloze,
1773,Main,,,SP,Hanako,S,those mechanics,P,Filler,0.0-2.0-0.7,29,['are'],,,"Both Hanako and those mechanics %is,are% repairing the truck engine.",41293,9,cloze,
1773,Main,,,S,Andy,S,,,Filler,0.0-2.0-0.8,69,['is'],,,"Andy %is,are% capturing the wildlife in photographs.",44488,10,cloze,
1773,Main,,,PS,those kids,P,Jimmy,S,Critical,0.0-2.0-0.9,18,['are'],,,"Either those kids or Jimmy %is,are% building the tree house.",50087,11,cloze,
1773,Main,,,S,Joey,S,,,Filler,0.0-2.0-0.10,70,['is'],,,"Joey %is,are% developing the game software.",54101,12,cloze,
1773,Main,,,S,Jimmy,S,,,Filler,0.0-2.0-0.11,61,['is'],,,"Jimmy %is,are% fertilizing the fields.",57183,13,cloze,
1773,Main,,,S,Alex,S,,,Filler,0.0-2.0-0.12,58,['is'],,,"Alex %is,are% installing the security system.",61632,14,cloze,
1773,Main,,,PP,those administrators,P,these teachers,P,Critical,0.0-2.0-0.13,11,['are'],,,"Either those administrators or these teachers %is,are% making the admission decisions.",64798,15,cloze,
1773,Main,,,S,Maria,S,,,Filler,0.0-2.0-0.14,64,['is'],,,"Maria %is,are% producing the documentary film.",67535,16,cloze,
1773,Main,,,S,Lin,S,,,Filler,0.0-2.0-0.15,51,['is'],,,"Lin %is,are% reviewing the project proposals.",70163,17,cloze,
1773,Main,,,S,Zeynab,S,,,Filler,0.0-2.0-0.16,54,['is'],,,"Zeynab %is,are% caring for the garden.",73153,18,cloze,
1773,Main,,,S,Carlos,S,,,Filler,0.0-2.0-0.17,62,['is'],,,"Carlos %is,are% painting the mural.",76254,19,cloze,
1773,Main,,,P,those nurses,P,,,Filler,0.0-2.0-0.18,42,['are'],,,"Those nurses %is,are% attending to the patients.",77953,20,cloze,
1773,Main,,,SS,Fatima,S,Lucas,S,Critical,0.0-2.0-0.19,7,['is'],,,"Either Fatima or Lucas %is,are% conducting the experiments.",82676,21,cloze,
1773,Main,,,SP,Brian,S,those designers,P,Critical,0.0-2.0-0.20,9,['are'],,,"Either Brian or those designers %is,are% creating the fashion collection.",84854,22,cloze,
1773,Main,,,SP,John,S,those boys,P,Critical,0.0-2.0-0.21,1,['are'],,,"Either John or those boys %is,are% interviewing the movie star.",87311,23,cloze,
1773,Main,,,PS,those electricians,P,Melissa,S,Filler,0.0-2.0-0.22,33,['are'],,,"Both those electricians and Melissa %is,are% fixing the wiring issues.",89644,24,cloze,
1773,Main,,,SS,Krishna,S,Amir,S,Filler,0.0-2.0-0.23,37,['are'],,,"Both Krishna and Amir %is,are% analyzing the market trends.",91667,25,cloze,
1773,Main,,,S,Kim,S,,,Filler,0.0-2.0-0.24,60,['is'],,,"Kim %is,are% cataloging the library collection.",94610,26,cloze,
1773,Main,,,S,Liam,S,,,Filler,0.0-2.0-0.25,68,['is'],,,"Liam %is,are% solving the mystery case.",97379,27,cloze,
1773,Main,,,SS,Juan,S,Antonio,S,Filler,0.0-2.0-0.26,36,['are'],,,"Both Juan and Antonio %is,are% making the admission decisions.",99374,28,cloze,
1773,Main,,,SP,David,S,those plumbers,P,Filler,0.0-2.0-0.27,31,['are'],,,"Both David and those plumbers %is,are% fixing the leaking pipe.",101363,29,cloze,
1773,Main,,,PP,those police officers,P,those detectives,P,Filler,0.0-2.0-0.28,28,['are'],,,"Both those police officers and those detectives %is,are% investigating the crime scene.",104130,30,cloze,
1773,Main,,,PS,those tailors,P,Thomas,S,Critical,0.0-2.0-0.29,19,['are'],,,"Either those tailors or Thomas %is,are% sewing the dresses.",108458,31,cloze,
1773,Main,,,S,Lydia,S,,,Filler,0.0-2.0-0.30,67,['is'],,,"Lydia %is,are% tailoring the costumes.",111154,32,cloze,
1773,Main,,,SS,Peter,S,Noah,S,Critical,0.0-2.0-0.31,15,['is'],,,"Either Peter or Noah %is,are% handling the legal documents.",119358,33,cloze,
1773,Main,,,S,Ellen,S,,,Filler,0.0-2.0-0.32,71,['is'],,,"Ellen %is,are% renovating the historic building.",122330,34,cloze,
1773,Main,,,S,Peter,S,,,Filler,0.0-2.0-0.33,56,['is'],,,"Peter %is,are% composing the annual report.",125119,35,cloze,
1773,Main,,,SS,Hanako,S,George,S,Critical,0.0-2.0-0.34,4,['is'],,,"Either Hanako or George %is,are% repairing the truck engine.",142204,36,cloze,
1773,Main,,,PS,those painters,P,Lydia,S,Critical,0.0-2.0-0.35,21,['are'],,,"Either those painters or Lydia %is,are% using the art studio.",145451,37,cloze,
1773,Main,,,PP,those astronomers,P,these photographers,P,Critical,0.0-2.0-0.36,16,['are'],,,"Either those astronomers or these photographers %is,are% recording the solar eclipse.",147847,38,cloze,
1773,Main,,,PS,those nurses,P,Bill,S,Critical,0.0-2.0-0.37,17,['are'],,,"Either those nurses or Bill %is,are% attending to the patients.",151423,39,cloze,
1773,Main,,,PS,those children,P,Lisa,S,Critical,0.0-2.0-0.38,5,['are'],,,"Either those children or Lisa %is,are% preparing dinner.",154297,40,cloze,
1773,Main,,,PP,those managers,P,those staff members,P,Critical,0.0-2.0-0.39,10,['are'],,,"Either those managers or those staff members %is,are% writing the end-of-year report.",156809,41,cloze,
1773,Main,,,PP,these professors,P,those students,P,Filler,0.0-2.0-0.40,27,['are'],,,"Both these professors and those students %is,are% drafting the important email.",159860,42,cloze,
1773,Main,,,SP,David,S,those plumbers,P,Critical,0.0-2.0-0.41,6,['are'],,,"Either David or those plumbers %is,are% fixing the leaking pipe.",162861,43,cloze,
1773,Main,,,P,those parents,P,,,Filler,0.0-2.0-0.42,49,['are'],,,"Those parents %is,are% taking care of the babies.",164889,44,cloze,
1773,Main,,,S,Yuki,S,,,Filler,0.0-2.0-0.43,66,['is'],,,"Yuki %is,are% evaluating the scholarship applications.",167729,45,cloze,
1773,Main,,,PP,those police officers,P,those detectives,P,Critical,0.0-2.0-0.44,3,['are'],,,"Either those police officers or those detectives %is,are% investigating the crime scene.",169830,46,cloze,
1773,Main,,,P,those athletes,P,,,Filler,0.0-2.0-0.45,48,['are'],,,"Those athletes %is,are% working out at the gym.",171581,47,cloze,
1773,Main,,,P,these photographers,P,,,Filler,0.0-2.0-0.46,41,['are'],,,"These photographers %is,are% recording the solar eclipse.",173476,48,cloze,
1773,Main,,,SS,Melissa,S,Patrick,S,Critical,0.0-2.0-0.47,8,['is'],,,"Either Melissa or Patrick %is,are% fixing the wiring issues.",185940,49,cloze,
1773,Main,,,P,those editors,P,,,Filler,0.0-2.0-0.48,39,['are'],,,"Those editors %is,are% proofreading the manuscripts.",187831,50,cloze,
1773,Main,,,PP,those art students,P,those illustrators,P,Critical,0.0-2.0-0.49,25,['are'],,,"Either those art students or those illustrators %is,are% sketching the concept art.",190845,51,cloze,
1773,Main,,,PP,these girls,P,those boys,P,Filler,0.0-2.0-0.50,26,['are'],,,"Both these girls and those boys %is,are% interviewing the movie star.",193023,52,cloze,
1773,Main,,,S,Emma,S,,,Filler,0.0-2.0-0.51,55,['is'],,,"Emma %is,are% resolving the network issues",195908,53,cloze,
1773,Main,,,PS,these architects,P,Mateo,S,Critical,0.0-2.0-0.52,13,['are'],,,"Either these architects or Mateo %is,are% designing the building's layout.",199323,54,cloze,
1773,Main,,,PS,those statisticians,P,Krishna,S,Critical,0.0-2.0-0.53,12,['are'],,,"Either those statisticians or Krishna %is,are% analyzing the market trends.",201673,55,cloze,
1773,Main,,,S,Pedro,S,,,Filler,0.0-2.0-0.54,53,['is'],,,"Pedro %is,are% editing the academic journal.",204451,56,cloze,
1773,Main,,,S,Mateo,S,,,Filler,0.0-2.0-0.55,50,['is'],,,"Mateo %is,are% organizing the charity event.",206997,57,cloze,
1773,Main,,,PP,those trainers,P,those athletes,P,Critical,0.0-2.0-0.56,23,['are'],,,"Either those trainers or those athletes %is,are% working out at the gym.",208785,58,cloze,
1773,Main,,,S,Ali,S,,,Filler,0.0-2.0-0.57,72,['is'],,,"Ali %is,are% cooking the festive meal.",211473,59,cloze,
1773,Main,,,S,Elias,S,,,Filler,0.0-2.0-0.58,52,['is'],,,"Elias %is,are% leading the scientific research.",213994,60,cloze,
1773,Main,,,PS,these research assistants,P,Fatima,S,Filler,0.0-2.0-0.59,32,['are'],,,"Both these research assistants and Fatima %is,are% conducting the experiments.",216705,61,cloze,
1773,Main,,,P,these architects,P,,,Filler,0.0-2.0-0.60,38,['are'],,,"These architects %is,are% designing the building's layout.",218354,62,cloze,
1773,Main,,,P,those tailors,P,,,Filler,0.0-2.0-0.61,44,['are'],,,"Those tailors %is,are% sewing the dresses.",219803,63,cloze,
1773,Main,,,S,Hank,S,,,Filler,0.0-2.0-0.62,73,['is'],,,"Hank %is,are% constructing the playground.",222282,64,cloze,
1773,Main,,,SP,Hank,S,those parents,P,Critical,0.0-2.0-0.63,24,['are'],,,"Either Hank or those parents %is,are% taking care of the babies.",224067,65,cloze,
1773,Main,,,P,those kids,P,,,Filler,0.0-2.0-0.64,43,['are'],,,"Those kids %is,are% building the tree house.",225731,66,cloze,
1773,Main,,,S,Hasan,S,,,Filler,0.0-2.0-0.65,65,['is'],,,"Hasan %is,are% decorating the gallery.",228446,67,cloze,
1773,Main,,,P,those volunteers,P,,,Filler,0.0-2.0-0.66,45,['are'],,,"Those volunteers %is,are% sorting the books.",230050,68,cloze,
1773,Main,,,P,those painters,P,,,Filler,0.0-2.0-0.67,46,['are'],,,"Those painters %is,are% using the art studio.",231475,69,cloze,
1773,Main,,,PP,those librarians,P,those volunteers,P,Critical,0.0-2.0-0.68,20,['are'],,,"Either those librarians or those volunteers %is,are% sorting the books.",233248,70,cloze,
1773,Main,,,SS,Andy,S,Joey,S,Critical,0.0-2.0-0.69,22,['is'],,,"Either Andy or Joey %is,are% tending to the crops.",236429,71,cloze,
1773,Main,,,P,those farmers,P,,,Filler,0.0-2.0-0.70,47,['are'],,,"Those farmers %is,are% tending to the crops.",238057,72,cloze,
1773,Main,,,SS,Sarah,S,Matt,S,Filler,0.0-2.0-0.71,35,['are'],,,"Both Sarah and Matt %is,are% writing the end-of-year report.",239904,73,cloze,
1773,Main,,,P,those lawyers,P,,,Filler,0.0-2.0-0.72,40,['are'],,,"Those lawyers %is,are% handling the legal documents.",241460,74,cloze,
1773,Main,[],demographics,,,,,,,0.0-3.0,,"{'age': '31', 'P0_Q0': None, 'enjoy': 'An average experiment', 'gender': 'Male', 'correct': 'Yes', 'payment': 'The payment was too low', 'comments': 'Hopefully I did all the is / are answers correctly; I felt ""are"" was the right answer whenever referring to the possibility of a group being the folks completing a task, as if it were multiple people, it would be an ""are.""', 'language': 'Yes', 'education': 'Graduated high school', 'other-language': ''}",73113,,,314600,75,survey,
1773,Main,,thanks,,,,,,,0.0-4.0,,0,1701,Thank you for your time! Please click 'Continue' and then wait a moment until you're directed back to Prolific.<br><br>,,316304,76,html-button-response,
1755,Main,,irb,,,,,,,0.0-0.0,,0,7390,"<p><font size=""3"">We invite you to participate in a research study on language production and comprehension. Your experimenter will ask you to do a linguistic task such as reading sentences or words, naming pictures or describing scenes, making up sentences of your own, or participating in a simple language game. <br><br>There are no risks or benefits of any kind involved in this study. <br><br>You will be paid for your participation at the posted rate.<br><br>If you have read this form and have decided to participate in this experiment, please understand your participation is voluntary and you have the right to withdraw your consent or discontinue participation at anytime without penalty or loss of benefits to which you are otherwise entitled. You have the right to refuse to do particular tasks. Your individual privacy will be maintained in all published and written data resulting from the study. You may print this form for your records.<br><br>CONTACT INFORMATION: If you have any questions, concerns or complaints about this research study, its procedures, risks and benefits, you should contact the Protocol Director Meghan Sumner at (650)-725-9336. If you are not satisfied with how this study is being conducted, or if you have any concerns, complaints, or general questions about the research or your rights as a participant, please contact the Stanford Institutional Review Board (IRB) to speak to someone independent of the research team at (650)-723-2480 or toll free at 1-866-680-2906. You can also write to the Stanford IRB, Stanford University, 3000 El Camino Real, Five Palo Alto Square, 4th Floor, Palo Alto, CA 94306 USA.<br><br>If you agree to participate, please proceed to the study tasks.</font></p>",,7477,0,html-button-response,
1755,Main,,instructions,,,,,,,0.0-1.0,, ,22182,"In this experiment, you will read a series of sentences and will be asked to indicate the word which best completes it.<br><br><strong>Please type the word 'is' or 'are' in the blank.</strong> <br><br>If you're unsure about your choice, follow your first instinct.<br><br>When you're ready to begin, press the space bar.",,29661,1,html-keyboard-response,
1755,Main,,,PS,those staff members,P,Sarah,S,Critical,0.0-2.0-0.0,10,['is'],,,"Either those staff members or Sarah %is,are% writing the end-of-year report.",41255,2,cloze,
1755,Main,,,PP,these professors,P,those students,P,Filler,0.0-2.0-0.1,27,['are'],,,"Both these professors and those students %is,are% drafting the important email.",46648,3,cloze,
1755,Main,,,S,Maria,S,,,Filler,0.0-2.0-0.2,64,['is'],,,"Maria %is,are% producing the documentary film.",48931,4,cloze,
1755,Main,,,SS,Sarah,S,Matt,S,Filler,0.0-2.0-0.3,35,['are'],,,"Both Sarah and Matt %is,are% writing the end-of-year report.",51166,5,cloze,
1755,Main,,,PS,these research assistants,P,Fatima,S,Filler,0.0-2.0-0.4,32,['are'],,,"Both these research assistants and Fatima %is,are% conducting the experiments.",54086,6,cloze,
1755,Main,,,PP,those graduate students,P,these research assistants,P,Critical,0.0-2.0-0.5,7,['are'],,,"Either those graduate students or these research assistants %is,are% conducting the experiments.",57041,7,cloze,
1755,Main,,,P,those kids,P,,,Filler,0.0-2.0-0.6,43,['are'],,,"Those kids %is,are% building the tree house.",59514,8,cloze,
1755,Main,,,S,Bill,S,,,Filler,0.0-2.0-0.7,59,['is'],,,"Bill %is,are% planning the conference.",62555,9,cloze,
1755,Main,,,PP,these girls,P,those boys,P,Filler,0.0-2.0-0.8,26,['are'],,,"Both these girls and those boys %is,are% interviewing the movie star.",65030,10,cloze,
1755,Main,,,PP,those librarians,P,those volunteers,P,Critical,0.0-2.0-0.9,20,['are'],,,"Either those librarians or those volunteers %is,are% sorting the books.",68727,11,cloze,
1755,Main,,,S,Ellen,S,,,Filler,0.0-2.0-0.10,71,['is'],,,"Ellen %is,are% renovating the historic building.",77551,12,cloze,
1755,Main,,,PP,those gardeners,P,those farmers,P,Critical,0.0-2.0-0.11,22,['are'],,,"Either those gardeners or those farmers %is,are% tending to the crops.",96367,13,cloze,
1755,Main,,,P,these photographers,P,,,Filler,0.0-2.0-0.12,41,['are'],,,"These photographers %is,are% recording the solar eclipse.",103368,14,cloze,
1755,Main,,,S,Mateo,S,,,Filler,0.0-2.0-0.13,50,['is'],,,"Mateo %is,are% organizing the charity event.",184098,15,cloze,
1755,Main,,,S,Liam,S,,,Filler,0.0-2.0-0.14,68,['is'],,,"Liam %is,are% solving the mystery case.",186852,16,cloze,
1755,Main,,,P,these architects,P,,,Filler,0.0-2.0-0.15,38,['are'],,,"These architects %is,are% designing the building's layout.",189900,17,cloze,
1755,Main,,,PP,those babysitters,P,those parents,P,Critical,0.0-2.0-0.16,24,['are'],,,"Either those babysitters or those parents %is,are% taking care of the babies.",193110,18,cloze,
1755,Main,,,SS,Juan,S,Antonio,S,Filler,0.0-2.0-0.17,36,['are'],,,"Both Juan and Antonio %is,are% making the admission decisions.",200300,19,cloze,
1755,Main,,,PS,those illustrators,P,Hossein,S,Critical,0.0-2.0-0.18,25,['is'],,,"Either those illustrators or Hossein %is,are% sketching the concept art.",206047,20,cloze,
1755,Main,,,PP,those police officers,P,those detectives,P,Filler,0.0-2.0-0.19,28,['are'],,,"Both those police officers and those detectives %is,are% investigating the crime scene.",209851,21,cloze,
1755,Main,,,P,those painters,P,,,Filler,0.0-2.0-0.20,46,['are'],,,"Those painters %is,are% using the art studio.",213317,22,cloze,
1755,Main,,,P,those tailors,P,,,Filler,0.0-2.0-0.21,44,['are'],,,"Those tailors %is,are% sewing the dresses.",215766,23,cloze,
1755,Main,,,SP,Lisa,S,those children,P,Filler,0.0-2.0-0.22,30,['are'],,,"Both Lisa and those children %is,are% preparing dinner.",218776,24,cloze,
1755,Main,,,SS,Mateo,S,Lin,S,Critical,0.0-2.0-0.23,13,['is'],,,"Either Mateo or Lin %is,are% designing the building's layout.",222462,25,cloze,
1755,Main,,,PS,those tailors,P,Thomas,S,Critical,0.0-2.0-0.24,19,['is'],,,"Either those tailors or Thomas %is,are% sewing the dresses.",225366,26,cloze,
1755,Main,,,S,Carlos,S,,,Filler,0.0-2.0-0.25,62,['is'],,,"Carlos %is,are% painting the mural.",227579,27,cloze,
1755,Main,,,PS,these teachers,P,Juan,S,Critical,0.0-2.0-0.26,11,['is'],,,"Either these teachers or Juan %is,are% making the admission decisions.",229645,28,cloze,
1755,Main,,,PP,these drivers,P,those mechanics,P,Critical,0.0-2.0-0.27,4,['are'],,,"Either these drivers or those mechanics %is,are% repairing the truck engine.",232128,29,cloze,
1755,Main,,,S,Elias,S,,,Filler,0.0-2.0-0.28,52,['is'],,,"Elias %is,are% leading the scientific research.",235752,30,cloze,
1755,Main,,,S,Yuki,S,,,Filler,0.0-2.0-0.29,66,['is'],,,"Yuki %is,are% evaluating the scholarship applications.",238689,31,cloze,
1755,Main,,,SS,Brian,S,Jamaal,S,Critical,0.0-2.0-0.30,9,['is'],,,"Either Brian or Jamaal %is,are% creating the fashion collection.",242746,32,cloze,
1755,Main,,,S,Andy,S,,,Filler,0.0-2.0-0.31,69,['is'],,,"Andy %is,are% capturing the wildlife in photographs.",246407,33,cloze,
1755,Main,,,PS,those painters,P,Lydia,S,Critical,0.0-2.0-0.32,21,['is'],,,"Either those painters or Lydia %is,are% using the art studio.",249096,34,cloze,
1755,Main,,,SS,William,S,Jackie,S,Critical,0.0-2.0-0.33,2,['is'],,,"Either William or Jackie %is,are% drafting the important email.",251308,35,cloze,
1755,Main,,,S,Zeynab,S,,,Filler,0.0-2.0-0.34,54,['is'],,,"Zeynab %is,are% caring for the garden.",253311,36,cloze,
1755,Main,,,P,those parents,P,,,Filler,0.0-2.0-0.35,49,['are'],,,"Those parents %is,are% taking care of the babies.",255787,37,cloze,
1755,Main,,,S,Pedro,S,,,Filler,0.0-2.0-0.36,53,['is'],,,"Pedro %is,are% editing the academic journal.",258092,38,cloze,
1755,Main,,,P,those editors,P,,,Filler,0.0-2.0-0.37,39,['are'],,,"Those editors %is,are% proofreading the manuscripts.",260510,39,cloze,
1755,Main,,,PS,those editors,P,Zeynab,S,Critical,0.0-2.0-0.38,14,['is'],,,"Either those editors or Zeynab %is,are% proofreading the manuscripts.",262953,40,cloze,
1755,Main,,,P,those athletes,P,,,Filler,0.0-2.0-0.39,48,['are'],,,"Those athletes %is,are% working out at the gym.",265923,41,cloze,
1755,Main,,,S,Noah,S,,,Filler,0.0-2.0-0.40,57,['is'],,,"Noah %is,are% servicing the air conditioning units.",268333,42,cloze,
1755,Main,,,S,Jimmy,S,,,Filler,0.0-2.0-0.41,61,['is'],,,"Jimmy %is,are% fertilizing the fields.",270489,43,cloze,
1755,Main,,,SP,David,S,those plumbers,P,Filler,0.0-2.0-0.42,31,['are'],,,"Both David and those plumbers %is,are% fixing the leaking pipe.",273464,44,cloze,
1755,Main,,,S,Joey,S,,,Filler,0.0-2.0-0.43,70,['is'],,,"Joey %is,are% developing the game software.",275396,45,cloze,
1755,Main,,,S,Hank,S,,,Filler,0.0-2.0-0.44,73,['is'],,,"Hank %is,are% constructing the playground.",277352,46,cloze,
1755,Main,,,S,Lydia,S,,,Filler,0.0-2.0-0.45,67,['is'],,,"Lydia %is,are% tailoring the costumes.",279811,47,cloze,
1755,Main,,,PS,these photographers,P,Alex,S,Critical,0.0-2.0-0.46,16,['is'],,,"Either these photographers or Alex %is,are% recording the solar eclipse.",282347,48,cloze,
1755,Main,,,S,Emma,S,,,Filler,0.0-2.0-0.47,55,['is'],,,"Emma %is,are% resolving the network issues",284246,49,cloze,
1755,Main,,,PS,those electricians,P,Melissa,S,Critical,0.0-2.0-0.48,8,['is'],,,"Either those electricians or Melissa %is,are% fixing the wiring issues.",286530,50,cloze,
1755,Main,,,PS,those nurses,P,Bill,S,Critical,0.0-2.0-0.49,17,['is'],,,"Either those nurses or Bill %is,are% attending to the patients.",288598,51,cloze,
1755,Main,,,SS,Ellen,S,Ali,S,Critical,0.0-2.0-0.50,23,['is'],,,"Either Ellen or Ali %is,are% working out at the gym.",290580,52,cloze,
1755,Main,,,PS,those lawyers,P,Peter,S,Critical,0.0-2.0-0.51,15,['is'],,,"Either those lawyers or Peter %is,are% handling the legal documents.",292763,53,cloze,
1755,Main,,,P,those volunteers,P,,,Filler,0.0-2.0-0.52,45,['are'],,,"Those volunteers %is,are% sorting the books.",295755,54,cloze,
1755,Main,,,S,Ali,S,,,Filler,0.0-2.0-0.53,72,['is'],,,"Ali %is,are% cooking the festive meal.",298199,55,cloze,
1755,Main,,,PS,those designers,P,Brian,S,Filler,0.0-2.0-0.54,34,['are'],,,"Both those designers and Brian %is,are% creating the fashion collection.",301215,56,cloze,
1755,Main,,,PS,those kids,P,Jimmy,S,Critical,0.0-2.0-0.55,18,['is'],,,"Either those kids or Jimmy %is,are% building the tree house.",303833,57,cloze,
1755,Main,,,P,those lawyers,P,,,Filler,0.0-2.0-0.56,40,['are'],,,"Those lawyers %is,are% handling the legal documents.",305980,58,cloze,
1755,Main,,,S,Alex,S,,,Filler,0.0-2.0-0.57,58,['is'],,,"Alex %is,are% installing the security system.",308541,59,cloze,
1755,Main,,,PS,those boys,P,John,S,Critical,0.0-2.0-0.58,1,['is'],,,"Either those boys or John %is,are% interviewing the movie star.",310672,60,cloze,
1755,Main,,,PS,those electricians,P,Melissa,S,Filler,0.0-2.0-0.59,33,['is'],,,"Both those electricians and Melissa %is,are% fixing the wiring issues.",312884,61,cloze,
1755,Main,,,S,Kim,S,,,Filler,0.0-2.0-0.60,60,['is'],,,"Kim %is,are% cataloging the library collection.",315839,62,cloze,
1755,Main,,,SP,Hanako,S,those mechanics,P,Filler,0.0-2.0-0.61,29,['are'],,,"Both Hanako and those mechanics %is,are% repairing the truck engine.",318333,63,cloze,
1755,Main,,,SS,Krishna,S,Amir,S,Filler,0.0-2.0-0.62,37,['are'],,,"Both Krishna and Amir %is,are% analyzing the market trends.",320688,64,cloze,
1755,Main,,,S,Thomas,S,,,Filler,0.0-2.0-0.63,63,['is'],,,"Thomas %is,are% training at the sports center.",324496,65,cloze,
1755,Main,,,S,Peter,S,,,Filler,0.0-2.0-0.64,56,['is'],,,"Peter %is,are% composing the annual report.",326765,66,cloze,
1755,Main,,,PP,those police officers,P,those detectives,P,Critical,0.0-2.0-0.65,3,['are'],,,"Either those police officers or those detectives %is,are% investigating the crime scene.",329414,67,cloze,
1755,Main,,,P,those farmers,P,,,Filler,0.0-2.0-0.66,47,['are'],,,"Those farmers %is,are% tending to the crops.",331854,68,cloze,
1755,Main,,,S,Hasan,S,,,Filler,0.0-2.0-0.67,65,['is'],,,"Hasan %is,are% decorating the gallery.",334129,69,cloze,
1755,Main,,,P,those nurses,P,,,Filler,0.0-2.0-0.68,42,['are'],,,"Those nurses %is,are% attending to the patients.",336267,70,cloze,
1755,Main,,,PS,those statisticians,P,Krishna,S,Critical,0.0-2.0-0.69,12,['is'],,,"Either those statisticians or Krishna %is,are% analyzing the market trends.",338736,71,cloze,
1755,Main,,,PS,those plumbers,P,David,S,Critical,0.0-2.0-0.70,6,['is'],,,"Either those plumbers or David %is,are% fixing the leaking pipe.",340809,72,cloze,
1755,Main,,,SP,Lisa,S,those children,P,Critical,0.0-2.0-0.71,5,['are'],,,"Either Lisa or those children %is,are% preparing dinner.",345016,73,cloze,
1755,Main,,,S,Lin,S,,,Filler,0.0-2.0-0.72,51,['is'],,,"Lin %is,are% reviewing the project proposals.",347554,74,cloze,
1755,Main,[],demographics,,,,,,,0.0-3.0,,"{'age': '22', 'P0_Q0': None, 'enjoy': 'Better than the average experiment', 'gender': 'Female', 'correct': 'Yes', 'payment': 'The payment was fair', 'comments': '', 'language': 'Yes', 'education': 'Graduated college', 'other-language': 'Mandarin'}",22741,,,370457,75,survey,
1755,Main,,thanks,,,,,,,0.0-4.0,,0,1524,Thank you for your time! Please click 'Continue' and then wait a moment until you're directed back to Prolific.<br><br>,,371985,76,html-button-response,
1777,Main,,irb,,,,,,,0.0-0.0,,0,17816,"<p><font size=""3"">We invite you to participate in a research study on language production and comprehension. Your experimenter will ask you to do a linguistic task such as reading sentences or words, naming pictures or describing scenes, making up sentences of your own, or participating in a simple language game. <br><br>There are no risks or benefits of any kind involved in this study. <br><br>You will be paid for your participation at the posted rate.<br><br>If you have read this form and have decided to participate in this experiment, please understand your participation is voluntary and you have the right to withdraw your consent or discontinue participation at anytime without penalty or loss of benefits to which you are otherwise entitled. You have the right to refuse to do particular tasks. Your individual privacy will be maintained in all published and written data resulting from the study. You may print this form for your records.<br><br>CONTACT INFORMATION: If you have any questions, concerns or complaints about this research study, its procedures, risks and benefits, you should contact the Protocol Director Meghan Sumner at (650)-725-9336. If you are not satisfied with how this study is being conducted, or if you have any concerns, complaints, or general questions about the research or your rights as a participant, please contact the Stanford Institutional Review Board (IRB) to speak to someone independent of the research team at (650)-723-2480 or toll free at 1-866-680-2906. You can also write to the Stanford IRB, Stanford University, 3000 El Camino Real, Five Palo Alto Square, 4th Floor, Palo Alto, CA 94306 USA.<br><br>If you agree to participate, please proceed to the study tasks.</font></p>",,17823,0,html-button-response,
1777,Main,,instructions,,,,,,,0.0-1.0,, ,15828,"In this experiment, you will read a series of sentences and will be asked to indicate the word which best completes it.<br><br><strong>Please type the word 'is' or 'are' in the blank.</strong> <br><br>If you're unsure about your choice, follow your first instinct.<br><br>When you're ready to begin, press the space bar.",,33653,1,html-keyboard-response,
1777,Main,,,PP,these housekeepers,P,those plumbers,P,Critical,0.0-2.0-0.0,6,['are'],,,"Either these housekeepers or those plumbers %is,are% fixing the leaking pipe.",39020,2,cloze,
1777,Main,,,PP,those art students,P,those illustrators,P,Critical,0.0-2.0-0.1,25,['are'],,,"Either those art students or those illustrators %is,are% sketching the concept art.",44133,3,cloze,
1777,Main,,,PP,those police officers,P,those detectives,P,Filler,0.0-2.0-0.2,28,['are'],,,"Both those police officers and those detectives %is,are% investigating the crime scene.",48039,4,cloze,
1777,Main,,,P,those painters,P,,,Filler,0.0-2.0-0.3,46,['are'],,,"Those painters %is,are% using the art studio.",51608,5,cloze,
1777,Main,,,PP,these surgeons,P,those nurses,P,Critical,0.0-2.0-0.4,17,['are'],,,"Either these surgeons or those nurses %is,are% attending to the patients.",55351,6,cloze,
1777,Main,,,S,Noah,S,,,Filler,0.0-2.0-0.5,57,['is'],,,"Noah %is,are% servicing the air conditioning units.",59665,7,cloze,
1777,Main,,,P,those editors,P,,,Filler,0.0-2.0-0.6,39,['are'],,,"Those editors %is,are% proofreading the manuscripts.",63091,8,cloze,
1777,Main,,,SP,David,S,those plumbers,P,Filler,0.0-2.0-0.7,31,['are'],,,"Both David and those plumbers %is,are% fixing the leaking pipe.",67824,9,cloze,
1777,Main,,,SS,William,S,Jackie,S,Critical,0.0-2.0-0.8,2,['is'],,,"Either William or Jackie %is,are% drafting the important email.",73642,10,cloze,
1777,Main,,,PP,these cooks,P,those children,P,Critical,0.0-2.0-0.9,5,['are'],,,"Either these cooks or those children %is,are% preparing dinner.",76913,11,cloze,
1777,Main,,,S,Hank,S,,,Filler,0.0-2.0-0.10,73,['is'],,,"Hank %is,are% constructing the playground.",80390,12,cloze,
1777,Main,,,SS,Hanako,S,George,S,Critical,0.0-2.0-0.11,4,['is'],,,"Either Hanako or George %is,are% repairing the truck engine.",85144,13,cloze,
1777,Main,,,S,Joey,S,,,Filler,0.0-2.0-0.12,70,['is'],,,"Joey %is,are% developing the game software.",89050,14,cloze,
1777,Main,,,PS,those kids,P,Jimmy,S,Critical,0.0-2.0-0.13,18,['are'],,,"Either those kids or Jimmy %is,are% building the tree house.",97367,15,cloze,
1777,Main,,,S,Ali,S,,,Filler,0.0-2.0-0.14,72,['is'],,,"Ali %is,are% cooking the festive meal.",102330,16,cloze,
1777,Main,,,PS,those designers,P,Brian,S,Filler,0.0-2.0-0.15,34,['are'],,,"Both those designers and Brian %is,are% creating the fashion collection.",105777,17,cloze,
1777,Main,,,P,those lawyers,P,,,Filler,0.0-2.0-0.16,40,['are'],,,"Those lawyers %is,are% handling the legal documents.",109765,18,cloze,
1777,Main,,,S,Yuki,S,,,Filler,0.0-2.0-0.17,66,['is'],,,"Yuki %is,are% evaluating the scholarship applications.",114373,19,cloze,
1777,Main,,,PP,those secretaries,P,those editors,P,Critical,0.0-2.0-0.18,14,['are'],,,"Either those secretaries or those editors %is,are% proofreading the manuscripts.",117601,20,cloze,
1777,Main,,,S,Emma,S,,,Filler,0.0-2.0-0.19,55,['is'],,,"Emma %is,are% resolving the network issues",120932,21,cloze,
1777,Main,,,S,Thomas,S,,,Filler,0.0-2.0-0.20,63,['is'],,,"Thomas %is,are% training at the sports center.",125495,22,cloze,
1777,Main,,,S,Elias,S,,,Filler,0.0-2.0-0.21,52,['is'],,,"Elias %is,are% leading the scientific research.",129099,23,cloze,
1777,Main,,,SP,Lisa,S,those children,P,Filler,0.0-2.0-0.22,30,['are'],,,"Both Lisa and those children %is,are% preparing dinner.",132526,24,cloze,
1777,Main,,,SP,Krishna,S,those statisticians,P,Critical,0.0-2.0-0.23,12,['are'],,,"Either Krishna or those statisticians %is,are% analyzing the market trends.",136345,25,cloze,
1777,Main,,,P,these architects,P,,,Filler,0.0-2.0-0.24,38,['are'],,,"These architects %is,are% designing the building's layout.",139965,26,cloze,
1777,Main,,,PS,those electricians,P,Melissa,S,Filler,0.0-2.0-0.25,33,['are'],,,"Both those electricians and Melissa %is,are% fixing the wiring issues.",143461,27,cloze,
1777,Main,,,P,those kids,P,,,Filler,0.0-2.0-0.26,43,['are'],,,"Those kids %is,are% building the tree house.",146354,28,cloze,
1777,Main,,,SP,Ellen,S,those athletes,P,Critical,0.0-2.0-0.27,23,['are'],,,"Either Ellen or those athletes %is,are% working out at the gym.",150653,29,cloze,
1777,Main,,,PP,those sculptors,P,those painters,P,Critical,0.0-2.0-0.28,21,['are'],,,"Either those sculptors or those painters %is,are% using the art studio.",153873,30,cloze,
1777,Main,,,P,those nurses,P,,,Filler,0.0-2.0-0.29,42,['are'],,,"Those nurses %is,are% attending to the patients.",157369,31,cloze,
